"exp","id","sex","age","handedness","threshold","block","condition","instruction","axis","trial","motion","absmotion","iti","response","rt","accuracy","answer"
"/home/kwm/julia/Experimente/2021-Imagery/LogFiles/Imagery","7003","w","23","right100.0","Threshold: 0.175",1,"probability","left","yaw",1,-0.17499998,0.17499998,5.02127422940912,"left",1365,1,"CR"
"/home/kwm/julia/Experimente/2021-Imagery/LogFiles/Imagery","7003","w","23","right100.0","Threshold: 0.175",1,"probability","left","yaw",2,0.124999997019768,0.124999997019768,5.30455652940116,"right",1025,1,"HIT"
"/home/kwm/julia/Experimente/2021-Imagery/LogFiles/Imagery","7003","w","23","right100.0","Threshold: 0.175",1,"probability","left","yaw",3,0.124999997019768,0.124999997019768,4.44626277270718,"left",1022,0,"MISS"
"/home/kwm/julia/Experimente/2021-Imagery/LogFiles/Imagery","7003","w","23","right100.0","Threshold: 0.175",1,"probability","left","yaw",4,0.224999997019768,0.224999997019768,5.08822066587787,"right",979,1,"HIT"
"/home/kwm/julia/Experimente/2021-Imagery/LogFiles/Imagery","7003","w","23","right100.0","Threshold: 0.175",1,"probability","left","yaw",5,-0.224999997019768,0.224999997019768,5.07489067962047,"left",985,1,"CR"
"/home/kwm/julia/Experimente/2021-Imagery/LogFiles/Imagery","7003","w","23","right100.0","Threshold: 0.175",1,"probability","left","yaw",6,-0.17499998,0.17499998,4.98742605419992,"left",1269,1,"CR"
"/home/kwm/julia/Experimente/2021-Imagery/LogFiles/Imagery","7003","w","23","right100.0","Threshold: 0.175",1,"probability","left","yaw",7,-0.224999997019768,0.224999997019768,5.40407291679807,"left",986,1,"CR"
"/home/kwm/julia/Experimente/2021-Imagery/LogFiles/Imagery","7003","w","23","right100.0","Threshold: 0.175",1,"probability","left","yaw",8,-0.17499998,0.17499998,5.21573778178092,"right",793,0,"FA"
"/home/kwm/julia/Experimente/2021-Imagery/LogFiles/Imagery","7003","w","23","right100.0","Threshold: 0.175",1,"probability","left","yaw",9,0.0249999970197677,0.0249999970197677,5.32741756168177,"left",1084,0,"MISS"
"/home/kwm/julia/Experimente/2021-Imagery/LogFiles/Imagery","7003","w","23","right100.0","Threshold: 0.175",1,"probability","left","yaw",10,-0.0749999970197678,0.0749999970197678,4.28895875419124,"right",871,0,"FA"
"/home/kwm/julia/Experimente/2021-Imagery/LogFiles/Imagery","7003","w","23","right100.0","Threshold: 0.175",1,"probability","left","yaw",11,-0.124999997019768,0.124999997019768,5.26975487678223,"left",937,1,"CR"
"/home/kwm/julia/Experimente/2021-Imagery/LogFiles/Imagery","7003","w","23","right100.0","Threshold: 0.175",1,"probability","left","yaw",12,0.224999997019768,0.224999997019768,5.10002308331748,"right",798,1,"HIT"
"/home/kwm/julia/Experimente/2021-Imagery/LogFiles/Imagery","7003","w","23","right100.0","Threshold: 0.175",1,"probability","left","yaw",13,0.0249999970197677,0.0249999970197677,5.27969218183489,"left",1043,0,"MISS"
"/home/kwm/julia/Experimente/2021-Imagery/LogFiles/Imagery","7003","w","23","right100.0","Threshold: 0.175",1,"probability","left","yaw",14,-0.224999997019768,0.224999997019768,4.82481298272531,"right",797,0,"FA"
"/home/kwm/julia/Experimente/2021-Imagery/LogFiles/Imagery","7003","w","23","right100.0","Threshold: 0.175",1,"probability","left","yaw",15,-0.0249999970197677,0.0249999970197677,5.44355547008471,"right",1187,0,"FA"
"/home/kwm/julia/Experimente/2021-Imagery/LogFiles/Imagery","7003","w","23","right100.0","Threshold: 0.175",1,"probability","left","yaw",16,-0.124999997019768,0.124999997019768,5.09641076909942,"left",758,1,"CR"
"/home/kwm/julia/Experimente/2021-Imagery/LogFiles/Imagery","7003","w","23","right100.0","Threshold: 0.175",1,"probability","left","yaw",17,-0.224999997019768,0.224999997019768,4.9975227603451,"right",656,0,"FA"
"/home/kwm/julia/Experimente/2021-Imagery/LogFiles/Imagery","7003","w","23","right100.0","Threshold: 0.175",1,"probability","left","yaw",18,-0.224999997019768,0.224999997019768,5.0106381244609,"left",827,1,"CR"
"/home/kwm/julia/Experimente/2021-Imagery/LogFiles/Imagery","7003","w","23","right100.0","Threshold: 0.175",1,"probability","left","yaw",19,-0.17499998,0.17499998,5.14896321089485,"left",874,1,"CR"
"/home/kwm/julia/Experimente/2021-Imagery/LogFiles/Imagery","7003","w","23","right100.0","Threshold: 0.175",1,"probability","left","yaw",20,0.224999997019768,0.224999997019768,5.21856158020427,"right",744,1,"HIT"
"/home/kwm/julia/Experimente/2021-Imagery/LogFiles/Imagery","7003","w","23","right100.0","Threshold: 0.175",1,"probability","left","yaw",21,0.17499998,0.17499998,5.06575297732496,"left",747,0,"MISS"
"/home/kwm/julia/Experimente/2021-Imagery/LogFiles/Imagery","7003","w","23","right100.0","Threshold: 0.175",1,"probability","left","yaw",22,-0.0749999970197678,0.0749999970197678,5.09452971017482,"left",1054,1,"CR"
"/home/kwm/julia/Experimente/2021-Imagery/LogFiles/Imagery","7003","w","23","right100.0","Threshold: 0.175",1,"probability","left","yaw",23,-0.0249999970197677,0.0249999970197677,4.89042961555131,"left",3651,1,"CR"
"/home/kwm/julia/Experimente/2021-Imagery/LogFiles/Imagery","7003","w","23","right100.0","Threshold: 0.175",1,"probability","left","yaw",24,-0.124999997019768,0.124999997019768,5.21354577806273,"left",973,1,"CR"
"/home/kwm/julia/Experimente/2021-Imagery/LogFiles/Imagery","7003","w","23","right100.0","Threshold: 0.175",1,"probability","left","yaw",25,-0.17499998,0.17499998,4.8839048699742,"left",889,1,"CR"
"/home/kwm/julia/Experimente/2021-Imagery/LogFiles/Imagery","7003","w","23","right100.0","Threshold: 0.175",1,"probability","left","yaw",26,-0.0249999970197677,0.0249999970197677,5.19464443918828,"right",950,0,"FA"
"/home/kwm/julia/Experimente/2021-Imagery/LogFiles/Imagery","7003","w","23","right100.0","Threshold: 0.175",1,"probability","left","yaw",27,-0.224999997019768,0.224999997019768,4.32387335273737,"left",774,1,"CR"
"/home/kwm/julia/Experimente/2021-Imagery/LogFiles/Imagery","7003","w","23","right100.0","Threshold: 0.175",1,"probability","left","yaw",28,0.0249999970197677,0.0249999970197677,4.77966200206458,"right",850,1,"HIT"
"/home/kwm/julia/Experimente/2021-Imagery/LogFiles/Imagery","7003","w","23","right100.0","Threshold: 0.175",1,"probability","left","yaw",29,-0.0249999970197677,0.0249999970197677,4.80447039355992,"left",5177,1,"CR"
"/home/kwm/julia/Experimente/2021-Imagery/LogFiles/Imagery","7003","w","23","right100.0","Threshold: 0.175",1,"probability","left","yaw",30,0.224999997019768,0.224999997019768,5.02271882826314,"right",937,1,"HIT"
"/home/kwm/julia/Experimente/2021-Imagery/LogFiles/Imagery","7003","w","23","right100.0","Threshold: 0.175",1,"probability","left","yaw",31,0.0249999970197677,0.0249999970197677,4.97115434749971,"left",1065,0,"MISS"
"/home/kwm/julia/Experimente/2021-Imagery/LogFiles/Imagery","7003","w","23","right100.0","Threshold: 0.175",1,"probability","left","yaw",32,-0.124999997019768,0.124999997019768,5.15675902008066,"left",786,1,"CR"
"/home/kwm/julia/Experimente/2021-Imagery/LogFiles/Imagery","7003","w","23","right100.0","Threshold: 0.175",1,"probability","left","yaw",33,0.0249999970197677,0.0249999970197677,5.02773311926865,"right",785,1,"HIT"
"/home/kwm/julia/Experimente/2021-Imagery/LogFiles/Imagery","7003","w","23","right100.0","Threshold: 0.175",1,"probability","left","yaw",34,-0.124999997019768,0.124999997019768,5.53755724301558,"left",683,1,"CR"
"/home/kwm/julia/Experimente/2021-Imagery/LogFiles/Imagery","7003","w","23","right100.0","Threshold: 0.175",1,"probability","left","yaw",35,0.17499998,0.17499998,5.35245556554443,"left",580,0,"MISS"
"/home/kwm/julia/Experimente/2021-Imagery/LogFiles/Imagery","7003","w","23","right100.0","Threshold: 0.175",1,"probability","left","yaw",36,0.224999997019768,0.224999997019768,5.55674871599955,"right",807,1,"HIT"
"/home/kwm/julia/Experimente/2021-Imagery/LogFiles/Imagery","7003","w","23","right100.0","Threshold: 0.175",1,"probability","left","yaw",37,-0.0749999970197678,0.0749999970197678,5.03826954988587,"right",1229,0,"FA"
"/home/kwm/julia/Experimente/2021-Imagery/LogFiles/Imagery","7003","w","23","right100.0","Threshold: 0.175",1,"probability","left","yaw",38,0.124999997019768,0.124999997019768,5.21865308790678,"right",938,1,"HIT"
"/home/kwm/julia/Experimente/2021-Imagery/LogFiles/Imagery","7003","w","23","right100.0","Threshold: 0.175",1,"probability","left","yaw",39,0.224999997019768,0.224999997019768,4.86963887794937,"right",940,1,"HIT"
"/home/kwm/julia/Experimente/2021-Imagery/LogFiles/Imagery","7003","w","23","right100.0","Threshold: 0.175",1,"probability","left","yaw",40,0.0749999970197678,0.0749999970197678,4.54788036366192,"left",796,0,"MISS"
"/home/kwm/julia/Experimente/2021-Imagery/LogFiles/Imagery","7003","w","23","right100.0","Threshold: 0.175",1,"probability","left","yaw",41,-0.224999997019768,0.224999997019768,4.55044693667655,"right",1824,0,"FA"
"/home/kwm/julia/Experimente/2021-Imagery/LogFiles/Imagery","7003","w","23","right100.0","Threshold: 0.175",1,"probability","left","yaw",42,0.0249999970197677,0.0249999970197677,4.84265719815988,"left",1074,0,"MISS"
"/home/kwm/julia/Experimente/2021-Imagery/LogFiles/Imagery","7003","w","23","right100.0","Threshold: 0.175",1,"probability","left","yaw",43,0.17499998,0.17499998,4.51676450743279,"right",1426,1,"HIT"
"/home/kwm/julia/Experimente/2021-Imagery/LogFiles/Imagery","7003","w","23","right100.0","Threshold: 0.175",1,"probability","left","yaw",44,0.124999997019768,0.124999997019768,5.43938284407495,"right",941,1,"HIT"
"/home/kwm/julia/Experimente/2021-Imagery/LogFiles/Imagery","7003","w","23","right100.0","Threshold: 0.175",1,"probability","left","yaw",45,-0.0749999970197678,0.0749999970197678,5.55913941029909,"right",974,0,"FA"
"/home/kwm/julia/Experimente/2021-Imagery/LogFiles/Imagery","7003","w","23","right100.0","Threshold: 0.175",1,"probability","left","yaw",46,-0.0749999970197678,0.0749999970197678,5.16235988231026,"left",943,1,"CR"
"/home/kwm/julia/Experimente/2021-Imagery/LogFiles/Imagery","7003","w","23","right100.0","Threshold: 0.175",1,"probability","left","yaw",47,0.0249999970197677,0.0249999970197677,5.00710870386975,"right",1221,1,"HIT"
"/home/kwm/julia/Experimente/2021-Imagery/LogFiles/Imagery","7003","w","23","right100.0","Threshold: 0.175",1,"probability","left","yaw",48,-0.0249999970197677,0.0249999970197677,4.96351322828338,"left",1691,1,"CR"
"/home/kwm/julia/Experimente/2021-Imagery/LogFiles/Imagery","7003","w","23","right100.0","Threshold: 0.175",1,"probability","left","yaw",49,0.124999997019768,0.124999997019768,4.79345825000912,"left",5240,0,"MISS"
"/home/kwm/julia/Experimente/2021-Imagery/LogFiles/Imagery","7003","w","23","right100.0","Threshold: 0.175",1,"probability","left","yaw",50,0.17499998,0.17499998,5.07785723494121,"right",804,1,"HIT"
"/home/kwm/julia/Experimente/2021-Imagery/LogFiles/Imagery","7003","w","23","right100.0","Threshold: 0.175",1,"probability","left","yaw",51,-0.17499998,0.17499998,5.28580202500136,"left",735,1,"CR"
"/home/kwm/julia/Experimente/2021-Imagery/LogFiles/Imagery","7003","w","23","right100.0","Threshold: 0.175",1,"probability","left","yaw",52,0.17499998,0.17499998,5.19241949820072,"right",893,1,"HIT"
"/home/kwm/julia/Experimente/2021-Imagery/LogFiles/Imagery","7003","w","23","right100.0","Threshold: 0.175",1,"probability","left","yaw",53,0.224999997019768,0.224999997019768,4.67188656344256,"left",127,0,"MISS"
"/home/kwm/julia/Experimente/2021-Imagery/LogFiles/Imagery","7003","w","23","right100.0","Threshold: 0.175",1,"probability","left","yaw",54,-0.17499998,0.17499998,5.41484221044961,"right",1074,0,"FA"
"/home/kwm/julia/Experimente/2021-Imagery/LogFiles/Imagery","7003","w","23","right100.0","Threshold: 0.175",1,"probability","left","yaw",55,0.17499998,0.17499998,4.83308334556234,"right",956,1,"HIT"
"/home/kwm/julia/Experimente/2021-Imagery/LogFiles/Imagery","7003","w","23","right100.0","Threshold: 0.175",1,"probability","left","yaw",56,0.0249999970197677,0.0249999970197677,5.29008502752064,"right",1417,1,"HIT"
"/home/kwm/julia/Experimente/2021-Imagery/LogFiles/Imagery","7003","w","23","right100.0","Threshold: 0.175",1,"probability","left","yaw",57,-0.0749999970197678,0.0749999970197678,4.98927256184537,"left",863,1,"CR"
"/home/kwm/julia/Experimente/2021-Imagery/LogFiles/Imagery","7003","w","23","right100.0","Threshold: 0.175",1,"probability","left","yaw",58,-0.17499998,0.17499998,5.25078626436701,"right",901,0,"FA"
"/home/kwm/julia/Experimente/2021-Imagery/LogFiles/Imagery","7003","w","23","right100.0","Threshold: 0.175",1,"probability","left","yaw",59,0.0249999970197677,0.0249999970197677,5.01368477944338,"right",1432,1,"HIT"
"/home/kwm/julia/Experimente/2021-Imagery/LogFiles/Imagery","7003","w","23","right100.0","Threshold: 0.175",1,"probability","left","yaw",60,-0.0749999970197678,0.0749999970197678,5.03658457701813,"left",3583,1,"CR"
"/home/kwm/julia/Experimente/2021-Imagery/LogFiles/Imagery","7003","w","23","right100.0","Threshold: 0.175",1,"probability","left","yaw",61,0.0749999970197678,0.0749999970197678,4.24236947912242,"right",865,1,"HIT"
"/home/kwm/julia/Experimente/2021-Imagery/LogFiles/Imagery","7003","w","23","right100.0","Threshold: 0.175",1,"probability","left","yaw",62,0.0749999970197678,0.0749999970197678,4.63661777011075,"left",1280,0,"MISS"
"/home/kwm/julia/Experimente/2021-Imagery/LogFiles/Imagery","7003","w","23","right100.0","Threshold: 0.175",1,"probability","left","yaw",63,0.124999997019768,0.124999997019768,4.77286689222056,"left",1319,0,"MISS"
"/home/kwm/julia/Experimente/2021-Imagery/LogFiles/Imagery","7003","w","23","right100.0","Threshold: 0.175",1,"probability","left","yaw",64,0.0749999970197678,0.0749999970197678,4.74473972318377,"right",869,1,"HIT"
"/home/kwm/julia/Experimente/2021-Imagery/LogFiles/Imagery","7003","w","23","right100.0","Threshold: 0.175",1,"probability","left","yaw",65,-0.0249999970197677,0.0249999970197677,5.07657294876313,"left",5406,1,"CR"
"/home/kwm/julia/Experimente/2021-Imagery/LogFiles/Imagery","7003","w","23","right100.0","Threshold: 0.175",1,"probability","left","yaw",66,0.0749999970197678,0.0749999970197678,5.04242357295239,"right",954,1,"HIT"
"/home/kwm/julia/Experimente/2021-Imagery/LogFiles/Imagery","7003","w","23","right100.0","Threshold: 0.175",1,"probability","left","yaw",67,-0.0749999970197678,0.0749999970197678,5.17108937456881,"left",811,1,"CR"
"/home/kwm/julia/Experimente/2021-Imagery/LogFiles/Imagery","7003","w","23","right100.0","Threshold: 0.175",1,"probability","left","yaw",68,-0.124999997019768,0.124999997019768,4.55296437414314,"right",916,0,"FA"
"/home/kwm/julia/Experimente/2021-Imagery/LogFiles/Imagery","7003","w","23","right100.0","Threshold: 0.175",1,"probability","left","yaw",69,-0.224999997019768,0.224999997019768,5.25957533721638,"left",757,1,"CR"
"/home/kwm/julia/Experimente/2021-Imagery/LogFiles/Imagery","7003","w","23","right100.0","Threshold: 0.175",1,"probability","left","yaw",70,-0.0749999970197678,0.0749999970197678,5.27687137125539,"left",992,1,"CR"
"/home/kwm/julia/Experimente/2021-Imagery/LogFiles/Imagery","7003","w","23","right100.0","Threshold: 0.175",1,"probability","left","yaw",71,0.124999997019768,0.124999997019768,5.19082188759637,"right",790,1,"HIT"
"/home/kwm/julia/Experimente/2021-Imagery/LogFiles/Imagery","7003","w","23","right100.0","Threshold: 0.175",1,"probability","left","yaw",72,-0.17499998,0.17499998,4.99068236777495,"right",998,0,"FA"
"/home/kwm/julia/Experimente/2021-Imagery/LogFiles/Imagery","7003","w","23","right100.0","Threshold: 0.175",1,"probability","left","yaw",73,0.124999997019768,0.124999997019768,4.97310424317445,"right",912,1,"HIT"
"/home/kwm/julia/Experimente/2021-Imagery/LogFiles/Imagery","7003","w","23","right100.0","Threshold: 0.175",1,"probability","left","yaw",74,-0.124999997019768,0.124999997019768,5.39640749492296,"left",3958,1,"CR"
"/home/kwm/julia/Experimente/2021-Imagery/LogFiles/Imagery","7003","w","23","right100.0","Threshold: 0.175",1,"probability","left","yaw",75,0.0249999970197677,0.0249999970197677,4.57559358933233,"right",1020,1,"HIT"
"/home/kwm/julia/Experimente/2021-Imagery/LogFiles/Imagery","7003","w","23","right100.0","Threshold: 0.175",1,"probability","left","yaw",76,0.0749999970197678,0.0749999970197678,5.33827546098727,"right",1000,1,"HIT"
"/home/kwm/julia/Experimente/2021-Imagery/LogFiles/Imagery","7003","w","23","right100.0","Threshold: 0.175",1,"probability","left","yaw",77,0.0749999970197678,0.0749999970197678,4.8808918363262,"left",325,0,"MISS"
"/home/kwm/julia/Experimente/2021-Imagery/LogFiles/Imagery","7003","w","23","right100.0","Threshold: 0.175",1,"probability","left","yaw",78,0.124999997019768,0.124999997019768,4.7774859054134,"right",767,1,"HIT"
"/home/kwm/julia/Experimente/2021-Imagery/LogFiles/Imagery","7003","w","23","right100.0","Threshold: 0.175",1,"probability","left","yaw",79,0.224999997019768,0.224999997019768,4.92805012941288,"left",1220,0,"MISS"
"/home/kwm/julia/Experimente/2021-Imagery/LogFiles/Imagery","7003","w","23","right100.0","Threshold: 0.175",1,"probability","left","yaw",80,-0.0249999970197677,0.0249999970197677,5.20071851730349,"left",2561,1,"CR"
"/home/kwm/julia/Experimente/2021-Imagery/LogFiles/Imagery","7003","w","23","right100.0","Threshold: 0.175",1,"probability","left","yaw",81,0.224999997019768,0.224999997019768,5.28607012675334,"right",837,1,"HIT"
"/home/kwm/julia/Experimente/2021-Imagery/LogFiles/Imagery","7003","w","23","right100.0","Threshold: 0.175",1,"probability","left","yaw",82,-0.124999997019768,0.124999997019768,4.94586639108103,"left",5470,1,"CR"
"/home/kwm/julia/Experimente/2021-Imagery/LogFiles/Imagery","7003","w","23","right100.0","Threshold: 0.175",1,"probability","left","yaw",83,-0.0249999970197677,0.0249999970197677,4.80684065740061,"right",990,0,"FA"
"/home/kwm/julia/Experimente/2021-Imagery/LogFiles/Imagery","7003","w","23","right100.0","Threshold: 0.175",1,"probability","left","yaw",84,-0.0249999970197677,0.0249999970197677,4.77738143627992,"left",1045,1,"CR"
"/home/kwm/julia/Experimente/2021-Imagery/LogFiles/Imagery","7003","w","23","right100.0","Threshold: 0.175",1,"probability","left","yaw",85,-0.0749999970197678,0.0749999970197678,4.70262028227823,"left",845,1,"CR"
"/home/kwm/julia/Experimente/2021-Imagery/LogFiles/Imagery","7003","w","23","right100.0","Threshold: 0.175",1,"probability","left","yaw",86,0.0749999970197678,0.0749999970197678,5.0516448870115,"left",1015,0,"MISS"
"/home/kwm/julia/Experimente/2021-Imagery/LogFiles/Imagery","7003","w","23","right100.0","Threshold: 0.175",1,"probability","left","yaw",87,0.17499998,0.17499998,4.96097291325245,"left",5127,0,"MISS"
"/home/kwm/julia/Experimente/2021-Imagery/LogFiles/Imagery","7003","w","23","right100.0","Threshold: 0.175",1,"probability","left","yaw",88,0.17499998,0.17499998,4.90901373937047,"right",742,1,"HIT"
"/home/kwm/julia/Experimente/2021-Imagery/LogFiles/Imagery","7003","w","23","right100.0","Threshold: 0.175",1,"probability","left","yaw",89,-0.224999997019768,0.224999997019768,4.63563607688322,"left",976,1,"CR"
"/home/kwm/julia/Experimente/2021-Imagery/LogFiles/Imagery","7003","w","23","right100.0","Threshold: 0.175",1,"probability","left","yaw",90,0.0749999970197678,0.0749999970197678,5.21956929633624,"right",890,1,"HIT"
"/home/kwm/julia/Experimente/2021-Imagery/LogFiles/Imagery","7003","w","23","right100.0","Threshold: 0.175",1,"probability","left","yaw",91,0.0749999970197678,0.0749999970197678,4.78874252610673,"left",1484,0,"MISS"
"/home/kwm/julia/Experimente/2021-Imagery/LogFiles/Imagery","7003","w","23","right100.0","Threshold: 0.175",1,"probability","left","yaw",92,-0.17499998,0.17499998,4.46309865768223,"left",3531,1,"CR"
"/home/kwm/julia/Experimente/2021-Imagery/LogFiles/Imagery","7003","w","23","right100.0","Threshold: 0.175",1,"probability","left","yaw",93,0.17499998,0.17499998,5.0997565572798,"right",911,1,"HIT"
"/home/kwm/julia/Experimente/2021-Imagery/LogFiles/Imagery","7003","w","23","right100.0","Threshold: 0.175",1,"probability","left","yaw",94,0.124999997019768,0.124999997019768,5.07240611206411,"left",5591,0,"MISS"
"/home/kwm/julia/Experimente/2021-Imagery/LogFiles/Imagery","7003","w","23","right100.0","Threshold: 0.175",1,"probability","left","yaw",95,-0.224999997019768,0.224999997019768,5.1090824205527,"right",760,0,"FA"
"/home/kwm/julia/Experimente/2021-Imagery/LogFiles/Imagery","7003","w","23","right100.0","Threshold: 0.175",1,"probability","left","yaw",96,-0.124999997019768,0.124999997019768,4.73112953345871,"left",867,1,"CR"
"/home/kwm/julia/Experimente/2021-Imagery/LogFiles/Imagery","7003","w","23","right100.0","Threshold: 0.175",1,"probability","left","yaw",97,0.224999997019768,0.224999997019768,4.79210542242793,"right",1506,1,"HIT"
"/home/kwm/julia/Experimente/2021-Imagery/LogFiles/Imagery","7003","w","23","right100.0","Threshold: 0.175",1,"probability","left","yaw",98,0.17499998,0.17499998,4.61161640701202,"left",1858,0,"MISS"
"/home/kwm/julia/Experimente/2021-Imagery/LogFiles/Imagery","7003","w","23","right100.0","Threshold: 0.175",1,"probability","left","yaw",99,-0.0249999970197677,0.0249999970197677,4.74671057477227,"left",1034,1,"CR"
"/home/kwm/julia/Experimente/2021-Imagery/LogFiles/Imagery","7003","w","23","right100.0","Threshold: 0.175",1,"probability","left","yaw",100,-0.124999997019768,0.124999997019768,5.10436676198515,"left",1892,1,"CR"
"/home/kwm/julia/Experimente/2021-Imagery/LogFiles/Imagery","7003","w","23","right100.0","Threshold: 0.175",1,"imagery","right","yaw",1,0.124999997019768,0.124999997019768,5.0352732495969,"right",875,1,"HIT"
"/home/kwm/julia/Experimente/2021-Imagery/LogFiles/Imagery","7003","w","23","right100.0","Threshold: 0.175",1,"imagery","right","yaw",2,0.124999997019768,0.124999997019768,5.36917851504129,"left",839,0,"MISS"
"/home/kwm/julia/Experimente/2021-Imagery/LogFiles/Imagery","7003","w","23","right100.0","Threshold: 0.175",1,"imagery","right","yaw",3,0.0749999970197678,0.0749999970197678,5.00742405757099,"right",828,1,"HIT"
"/home/kwm/julia/Experimente/2021-Imagery/LogFiles/Imagery","7003","w","23","right100.0","Threshold: 0.175",1,"imagery","right","yaw",4,0.124999997019768,0.124999997019768,4.29226320745502,"left",1005,0,"MISS"
"/home/kwm/julia/Experimente/2021-Imagery/LogFiles/Imagery","7003","w","23","right100.0","Threshold: 0.175",1,"imagery","right","yaw",5,0.124999997019768,0.124999997019768,5.03027500102966,"right",960,1,"HIT"
"/home/kwm/julia/Experimente/2021-Imagery/LogFiles/Imagery","7003","w","23","right100.0","Threshold: 0.175",1,"imagery","right","yaw",6,0.0249999970197677,0.0249999970197677,4.94928811412553,"left",4531,0,"MISS"
"/home/kwm/julia/Experimente/2021-Imagery/LogFiles/Imagery","7003","w","23","right100.0","Threshold: 0.175",1,"imagery","right","yaw",7,-0.0249999970197677,0.0249999970197677,4.84146066532683,"right",1025,0,"FA"
"/home/kwm/julia/Experimente/2021-Imagery/LogFiles/Imagery","7003","w","23","right100.0","Threshold: 0.175",1,"imagery","right","yaw",8,-0.0249999970197677,0.0249999970197677,5.13034088237274,"left",1500,1,"CR"
"/home/kwm/julia/Experimente/2021-Imagery/LogFiles/Imagery","7003","w","23","right100.0","Threshold: 0.175",1,"imagery","right","yaw",9,-0.124999997019768,0.124999997019768,5.02078752545279,"left",1987,1,"CR"
"/home/kwm/julia/Experimente/2021-Imagery/LogFiles/Imagery","7003","w","23","right100.0","Threshold: 0.175",1,"imagery","right","yaw",10,0.224999997019768,0.224999997019768,4.9400611878171,"right",740,1,"HIT"
"/home/kwm/julia/Experimente/2021-Imagery/LogFiles/Imagery","7003","w","23","right100.0","Threshold: 0.175",1,"imagery","right","yaw",11,-0.224999997019768,0.224999997019768,4.7842542846179,"left",1123,1,"CR"
"/home/kwm/julia/Experimente/2021-Imagery/LogFiles/Imagery","7003","w","23","right100.0","Threshold: 0.175",1,"imagery","right","yaw",12,-0.224999997019768,0.224999997019768,5.19647572263766,"right",846,0,"FA"
"/home/kwm/julia/Experimente/2021-Imagery/LogFiles/Imagery","7003","w","23","right100.0","Threshold: 0.175",1,"imagery","right","yaw",13,-0.124999997019768,0.124999997019768,5.67449032429781,"right",1911,0,"FA"
"/home/kwm/julia/Experimente/2021-Imagery/LogFiles/Imagery","7003","w","23","right100.0","Threshold: 0.175",1,"imagery","right","yaw",14,-0.124999997019768,0.124999997019768,5.08851423694707,"left",864,1,"CR"
"/home/kwm/julia/Experimente/2021-Imagery/LogFiles/Imagery","7003","w","23","right100.0","Threshold: 0.175",1,"imagery","right","yaw",15,-0.0749999970197678,0.0749999970197678,4.75560381716868,"right",845,0,"FA"
"/home/kwm/julia/Experimente/2021-Imagery/LogFiles/Imagery","7003","w","23","right100.0","Threshold: 0.175",1,"imagery","right","yaw",16,-0.17499998,0.17499998,4.60590878768262,"right",1075,0,"FA"
"/home/kwm/julia/Experimente/2021-Imagery/LogFiles/Imagery","7003","w","23","right100.0","Threshold: 0.175",1,"imagery","right","yaw",17,-0.224999997019768,0.224999997019768,5.20663607444487,"left",831,1,"CR"
"/home/kwm/julia/Experimente/2021-Imagery/LogFiles/Imagery","7003","w","23","right100.0","Threshold: 0.175",1,"imagery","right","yaw",18,-0.0249999970197677,0.0249999970197677,4.74848855788583,"left",999,1,"CR"
"/home/kwm/julia/Experimente/2021-Imagery/LogFiles/Imagery","7003","w","23","right100.0","Threshold: 0.175",1,"imagery","right","yaw",19,-0.0749999970197678,0.0749999970197678,4.65244905147965,"left",1266,1,"CR"
"/home/kwm/julia/Experimente/2021-Imagery/LogFiles/Imagery","7003","w","23","right100.0","Threshold: 0.175",1,"imagery","right","yaw",20,-0.17499998,0.17499998,4.87569792437101,"left",5640,1,"CR"
"/home/kwm/julia/Experimente/2021-Imagery/LogFiles/Imagery","7003","w","23","right100.0","Threshold: 0.175",1,"imagery","right","yaw",21,0.124999997019768,0.124999997019768,4.87321512086766,"right",845,1,"HIT"
"/home/kwm/julia/Experimente/2021-Imagery/LogFiles/Imagery","7003","w","23","right100.0","Threshold: 0.175",1,"imagery","right","yaw",22,-0.0749999970197678,0.0749999970197678,5.36447334122324,"left",916,1,"CR"
"/home/kwm/julia/Experimente/2021-Imagery/LogFiles/Imagery","7003","w","23","right100.0","Threshold: 0.175",1,"imagery","right","yaw",23,0.17499998,0.17499998,5.11412876670118,"right",794,1,"HIT"
"/home/kwm/julia/Experimente/2021-Imagery/LogFiles/Imagery","7003","w","23","right100.0","Threshold: 0.175",1,"imagery","right","yaw",24,-0.0749999970197678,0.0749999970197678,4.70097111939541,"left",904,1,"CR"
"/home/kwm/julia/Experimente/2021-Imagery/LogFiles/Imagery","7003","w","23","right100.0","Threshold: 0.175",1,"imagery","right","yaw",25,0.17499998,0.17499998,5.24323410784301,"right",2092,1,"HIT"
"/home/kwm/julia/Experimente/2021-Imagery/LogFiles/Imagery","7003","w","23","right100.0","Threshold: 0.175",1,"imagery","right","yaw",26,0.124999997019768,0.124999997019768,5.38007377250671,"left",994,0,"MISS"
"/home/kwm/julia/Experimente/2021-Imagery/LogFiles/Imagery","7003","w","23","right100.0","Threshold: 0.175",1,"imagery","right","yaw",27,0.17499998,0.17499998,4.93959312939575,"left",1415,0,"MISS"
"/home/kwm/julia/Experimente/2021-Imagery/LogFiles/Imagery","7003","w","23","right100.0","Threshold: 0.175",1,"imagery","right","yaw",28,0.17499998,0.17499998,4.79142372838472,"left",4688,0,"MISS"
"/home/kwm/julia/Experimente/2021-Imagery/LogFiles/Imagery","7003","w","23","right100.0","Threshold: 0.175",1,"imagery","right","yaw",29,-0.124999997019768,0.124999997019768,5.08312358021773,"left",836,1,"CR"
"/home/kwm/julia/Experimente/2021-Imagery/LogFiles/Imagery","7003","w","23","right100.0","Threshold: 0.175",1,"imagery","right","yaw",30,-0.0249999970197677,0.0249999970197677,4.52833403091254,"right",1042,0,"FA"
"/home/kwm/julia/Experimente/2021-Imagery/LogFiles/Imagery","7003","w","23","right100.0","Threshold: 0.175",1,"imagery","right","yaw",31,-0.224999997019768,0.224999997019768,5.38359058234365,"left",821,1,"CR"
"/home/kwm/julia/Experimente/2021-Imagery/LogFiles/Imagery","7003","w","23","right100.0","Threshold: 0.175",1,"imagery","right","yaw",32,-0.17499998,0.17499998,5.21847229152064,"left",885,1,"CR"
"/home/kwm/julia/Experimente/2021-Imagery/LogFiles/Imagery","7003","w","23","right100.0","Threshold: 0.175",1,"imagery","right","yaw",33,-0.0249999970197677,0.0249999970197677,5.47565789843629,"left",3030,1,"CR"
"/home/kwm/julia/Experimente/2021-Imagery/LogFiles/Imagery","7003","w","23","right100.0","Threshold: 0.175",1,"imagery","right","yaw",34,-0.124999997019768,0.124999997019768,5.14005903721832,"right",872,0,"FA"
"/home/kwm/julia/Experimente/2021-Imagery/LogFiles/Imagery","7003","w","23","right100.0","Threshold: 0.175",1,"imagery","right","yaw",35,0.0249999970197677,0.0249999970197677,4.93988218292301,"right",1131,1,"HIT"
"/home/kwm/julia/Experimente/2021-Imagery/LogFiles/Imagery","7003","w","23","right100.0","Threshold: 0.175",1,"imagery","right","yaw",36,0.124999997019768,0.124999997019768,5.20964767140724,"left",3007,0,"MISS"
"/home/kwm/julia/Experimente/2021-Imagery/LogFiles/Imagery","7003","w","23","right100.0","Threshold: 0.175",1,"imagery","right","yaw",37,0.224999997019768,0.224999997019768,4.18653902988433,"right",886,1,"HIT"
"/home/kwm/julia/Experimente/2021-Imagery/LogFiles/Imagery","7003","w","23","right100.0","Threshold: 0.175",1,"imagery","right","yaw",38,0.0749999970197678,0.0749999970197678,5.17026242970062,"left",5271,0,"MISS"
"/home/kwm/julia/Experimente/2021-Imagery/LogFiles/Imagery","7003","w","23","right100.0","Threshold: 0.175",1,"imagery","right","yaw",39,-0.224999997019768,0.224999997019768,4.80355384787058,"right",804,0,"FA"
"/home/kwm/julia/Experimente/2021-Imagery/LogFiles/Imagery","7003","w","23","right100.0","Threshold: 0.175",1,"imagery","right","yaw",40,0.0249999970197677,0.0249999970197677,5.02419044684835,"left",1048,0,"MISS"
"/home/kwm/julia/Experimente/2021-Imagery/LogFiles/Imagery","7003","w","23","right100.0","Threshold: 0.175",1,"imagery","right","yaw",41,0.0249999970197677,0.0249999970197677,4.75993134968371,"left",3269,0,"MISS"
"/home/kwm/julia/Experimente/2021-Imagery/LogFiles/Imagery","7003","w","23","right100.0","Threshold: 0.175",1,"imagery","right","yaw",42,-0.17499998,0.17499998,5.03368220336124,"left",4025,1,"CR"
"/home/kwm/julia/Experimente/2021-Imagery/LogFiles/Imagery","7003","w","23","right100.0","Threshold: 0.175",1,"imagery","right","yaw",43,-0.0249999970197677,0.0249999970197677,4.6793516207626,"right",967,0,"FA"
"/home/kwm/julia/Experimente/2021-Imagery/LogFiles/Imagery","7003","w","23","right100.0","Threshold: 0.175",1,"imagery","right","yaw",44,0.0249999970197677,0.0249999970197677,4.45795182947649,"left",1424,0,"MISS"
"/home/kwm/julia/Experimente/2021-Imagery/LogFiles/Imagery","7003","w","23","right100.0","Threshold: 0.175",1,"imagery","right","yaw",45,0.124999997019768,0.124999997019768,5.65941644564735,"left",3664,0,"MISS"
"/home/kwm/julia/Experimente/2021-Imagery/LogFiles/Imagery","7003","w","23","right100.0","Threshold: 0.175",1,"imagery","right","yaw",46,0.0749999970197678,0.0749999970197678,5.06974658120907,"right",835,1,"HIT"
"/home/kwm/julia/Experimente/2021-Imagery/LogFiles/Imagery","7003","w","23","right100.0","Threshold: 0.175",1,"imagery","right","yaw",47,-0.0749999970197678,0.0749999970197678,4.7466594646728,"left",965,1,"CR"
"/home/kwm/julia/Experimente/2021-Imagery/LogFiles/Imagery","7003","w","23","right100.0","Threshold: 0.175",1,"imagery","right","yaw",48,-0.224999997019768,0.224999997019768,4.67046479256777,"right",722,0,"FA"
"/home/kwm/julia/Experimente/2021-Imagery/LogFiles/Imagery","7003","w","23","right100.0","Threshold: 0.175",1,"imagery","right","yaw",49,0.0749999970197678,0.0749999970197678,4.80840086603529,"right",1110,1,"HIT"
"/home/kwm/julia/Experimente/2021-Imagery/LogFiles/Imagery","7003","w","23","right100.0","Threshold: 0.175",1,"imagery","right","yaw",50,-0.17499998,0.17499998,5.14640659892209,"left",3964,1,"CR"
"/home/kwm/julia/Experimente/2021-Imagery/LogFiles/Imagery","7003","w","23","right100.0","Threshold: 0.175",1,"imagery","right","yaw",51,-0.0749999970197678,0.0749999970197678,5.41111866331903,"left",5038,1,"CR"
"/home/kwm/julia/Experimente/2021-Imagery/LogFiles/Imagery","7003","w","23","right100.0","Threshold: 0.175",1,"imagery","right","yaw",52,0.17499998,0.17499998,5.25651784409407,"right",741,1,"HIT"
"/home/kwm/julia/Experimente/2021-Imagery/LogFiles/Imagery","7003","w","23","right100.0","Threshold: 0.175",1,"imagery","right","yaw",53,0.0249999970197677,0.0249999970197677,4.42789792613218,"left",1514,0,"MISS"
"/home/kwm/julia/Experimente/2021-Imagery/LogFiles/Imagery","7003","w","23","right100.0","Threshold: 0.175",1,"imagery","right","yaw",54,0.0749999970197678,0.0749999970197678,4.58860516183065,"left",1192,0,"MISS"
"/home/kwm/julia/Experimente/2021-Imagery/LogFiles/Imagery","7003","w","23","right100.0","Threshold: 0.175",1,"imagery","right","yaw",55,-0.0749999970197678,0.0749999970197678,5.35804941290577,"left",1120,1,"CR"
"/home/kwm/julia/Experimente/2021-Imagery/LogFiles/Imagery","7003","w","23","right100.0","Threshold: 0.175",1,"imagery","right","yaw",56,0.0249999970197677,0.0249999970197677,4.89936835308402,"left",6140,0,"MISS"
"/home/kwm/julia/Experimente/2021-Imagery/LogFiles/Imagery","7003","w","23","right100.0","Threshold: 0.175",1,"imagery","right","yaw",57,-0.17499998,0.17499998,5.31303512611465,"right",852,0,"FA"
"/home/kwm/julia/Experimente/2021-Imagery/LogFiles/Imagery","7003","w","23","right100.0","Threshold: 0.175",1,"imagery","right","yaw",58,-0.124999997019768,0.124999997019768,4.86214729345054,"left",1157,1,"CR"
"/home/kwm/julia/Experimente/2021-Imagery/LogFiles/Imagery","7003","w","23","right100.0","Threshold: 0.175",1,"imagery","right","yaw",59,0.224999997019768,0.224999997019768,4.72551352252762,"left",1709,0,"MISS"
"/home/kwm/julia/Experimente/2021-Imagery/LogFiles/Imagery","7003","w","23","right100.0","Threshold: 0.175",1,"imagery","right","yaw",60,-0.0249999970197677,0.0249999970197677,4.624555315154,"left",1286,1,"CR"
"/home/kwm/julia/Experimente/2021-Imagery/LogFiles/Imagery","7003","w","23","right100.0","Threshold: 0.175",1,"imagery","right","yaw",61,0.0749999970197678,0.0749999970197678,4.77892328276799,"right",324,1,"HIT"
"/home/kwm/julia/Experimente/2021-Imagery/LogFiles/Imagery","7003","w","23","right100.0","Threshold: 0.175",1,"imagery","right","yaw",62,-0.17499998,0.17499998,5.56985353976681,"left",1899,1,"CR"
"/home/kwm/julia/Experimente/2021-Imagery/LogFiles/Imagery","7003","w","23","right100.0","Threshold: 0.175",1,"imagery","right","yaw",63,0.17499998,0.17499998,5.43913426606403,"right",2207,1,"HIT"
"/home/kwm/julia/Experimente/2021-Imagery/LogFiles/Imagery","7003","w","23","right100.0","Threshold: 0.175",1,"imagery","right","yaw",64,0.17499998,0.17499998,5.10673610279121,"left",5573,0,"MISS"
"/home/kwm/julia/Experimente/2021-Imagery/LogFiles/Imagery","7003","w","23","right100.0","Threshold: 0.175",1,"imagery","right","yaw",65,-0.124999997019768,0.124999997019768,5.187728506841,"right",824,0,"FA"
"/home/kwm/julia/Experimente/2021-Imagery/LogFiles/Imagery","7003","w","23","right100.0","Threshold: 0.175",1,"imagery","right","yaw",66,0.17499998,0.17499998,5.52182449173945,"left",699,0,"MISS"
"/home/kwm/julia/Experimente/2021-Imagery/LogFiles/Imagery","7003","w","23","right100.0","Threshold: 0.175",1,"imagery","right","yaw",67,0.0749999970197678,0.0749999970197678,5.00504162166894,"right",278,1,"HIT"
"/home/kwm/julia/Experimente/2021-Imagery/LogFiles/Imagery","7003","w","23","right100.0","Threshold: 0.175",1,"imagery","right","yaw",68,-0.124999997019768,0.124999997019768,5.02667359904571,"left",804,1,"CR"
"/home/kwm/julia/Experimente/2021-Imagery/LogFiles/Imagery","7003","w","23","right100.0","Threshold: 0.175",1,"imagery","right","yaw",69,0.0249999970197677,0.0249999970197677,4.68606311709047,"left",223,0,"MISS"
"/home/kwm/julia/Experimente/2021-Imagery/LogFiles/Imagery","7003","w","23","right100.0","Threshold: 0.175",1,"imagery","right","yaw",70,0.0249999970197677,0.0249999970197677,5.11193596673682,"left",3297,0,"MISS"
"/home/kwm/julia/Experimente/2021-Imagery/LogFiles/Imagery","7003","w","23","right100.0","Threshold: 0.175",1,"imagery","right","yaw",71,0.224999997019768,0.224999997019768,4.41314044901404,"left",5369,0,"MISS"
"/home/kwm/julia/Experimente/2021-Imagery/LogFiles/Imagery","7003","w","23","right100.0","Threshold: 0.175",1,"imagery","right","yaw",72,0.17499998,0.17499998,5.13598974634992,"right",61,1,"HIT"
"/home/kwm/julia/Experimente/2021-Imagery/LogFiles/Imagery","7003","w","23","right100.0","Threshold: 0.175",1,"imagery","right","yaw",73,-0.17499998,0.17499998,4.92152913144824,"right",1092,0,"FA"
"/home/kwm/julia/Experimente/2021-Imagery/LogFiles/Imagery","7003","w","23","right100.0","Threshold: 0.175",1,"imagery","right","yaw",74,-0.224999997019768,0.224999997019768,5.10968027110708,"right",815,0,"FA"
"/home/kwm/julia/Experimente/2021-Imagery/LogFiles/Imagery","7003","w","23","right100.0","Threshold: 0.175",1,"imagery","right","yaw",75,0.124999997019768,0.124999997019768,4.85050002243111,"left",5500,0,"MISS"
"/home/kwm/julia/Experimente/2021-Imagery/LogFiles/Imagery","7003","w","23","right100.0","Threshold: 0.175",1,"imagery","right","yaw",76,-0.124999997019768,0.124999997019768,5.51479917466191,"right",863,0,"FA"
"/home/kwm/julia/Experimente/2021-Imagery/LogFiles/Imagery","7003","w","23","right100.0","Threshold: 0.175",1,"imagery","right","yaw",77,0.0749999970197678,0.0749999970197678,5.29432156460237,"right",1302,1,"HIT"
"/home/kwm/julia/Experimente/2021-Imagery/LogFiles/Imagery","7003","w","23","right100.0","Threshold: 0.175",1,"imagery","right","yaw",78,0.224999997019768,0.224999997019768,5.39895515125885,"left",5008,0,"MISS"
"/home/kwm/julia/Experimente/2021-Imagery/LogFiles/Imagery","7003","w","23","right100.0","Threshold: 0.175",1,"imagery","right","yaw",79,-0.224999997019768,0.224999997019768,4.89843466396703,"right",660,0,"FA"
"/home/kwm/julia/Experimente/2021-Imagery/LogFiles/Imagery","7003","w","23","right100.0","Threshold: 0.175",1,"imagery","right","yaw",80,-0.224999997019768,0.224999997019768,4.75821062398697,"left",883,1,"CR"
"/home/kwm/julia/Experimente/2021-Imagery/LogFiles/Imagery","7003","w","23","right100.0","Threshold: 0.175",1,"imagery","right","yaw",81,-0.0749999970197678,0.0749999970197678,4.49497707217043,"right",720,0,"FA"
"/home/kwm/julia/Experimente/2021-Imagery/LogFiles/Imagery","7003","w","23","right100.0","Threshold: 0.175",1,"imagery","right","yaw",82,-0.0249999970197677,0.0249999970197677,5.55190685381782,"right",959,0,"FA"
"/home/kwm/julia/Experimente/2021-Imagery/LogFiles/Imagery","7003","w","23","right100.0","Threshold: 0.175",1,"imagery","right","yaw",83,0.0749999970197678,0.0749999970197678,5.19195969266666,"left",2986,0,"MISS"
"/home/kwm/julia/Experimente/2021-Imagery/LogFiles/Imagery","7003","w","23","right100.0","Threshold: 0.175",1,"imagery","right","yaw",84,-0.17499998,0.17499998,5.2915793645086,"right",747,0,"FA"
"/home/kwm/julia/Experimente/2021-Imagery/LogFiles/Imagery","7003","w","23","right100.0","Threshold: 0.175",1,"imagery","right","yaw",85,-0.0249999970197677,0.0249999970197677,5.38095377563451,"left",2911,1,"CR"
"/home/kwm/julia/Experimente/2021-Imagery/LogFiles/Imagery","7003","w","23","right100.0","Threshold: 0.175",1,"imagery","right","yaw",86,0.0749999970197678,0.0749999970197678,5.37393628701389,"left",5300,0,"MISS"
"/home/kwm/julia/Experimente/2021-Imagery/LogFiles/Imagery","7003","w","23","right100.0","Threshold: 0.175",1,"imagery","right","yaw",87,0.17499998,0.17499998,5.31330065477094,"left",1180,0,"MISS"
"/home/kwm/julia/Experimente/2021-Imagery/LogFiles/Imagery","7003","w","23","right100.0","Threshold: 0.175",1,"imagery","right","yaw",88,-0.224999997019768,0.224999997019768,5.27598158777974,"right",762,0,"FA"
"/home/kwm/julia/Experimente/2021-Imagery/LogFiles/Imagery","7003","w","23","right100.0","Threshold: 0.175",1,"imagery","right","yaw",89,0.224999997019768,0.224999997019768,4.63539942981893,"right",855,1,"HIT"
"/home/kwm/julia/Experimente/2021-Imagery/LogFiles/Imagery","7003","w","23","right100.0","Threshold: 0.175",1,"imagery","right","yaw",90,0.224999997019768,0.224999997019768,5.42776973357065,"right",354,1,"HIT"
"/home/kwm/julia/Experimente/2021-Imagery/LogFiles/Imagery","7003","w","23","right100.0","Threshold: 0.175",1,"imagery","right","yaw",91,0.224999997019768,0.224999997019768,4.89598699069727,"left",4668,0,"MISS"
"/home/kwm/julia/Experimente/2021-Imagery/LogFiles/Imagery","7003","w","23","right100.0","Threshold: 0.175",1,"imagery","right","yaw",92,-0.17499998,0.17499998,5.18511251866469,"right",895,0,"FA"
"/home/kwm/julia/Experimente/2021-Imagery/LogFiles/Imagery","7003","w","23","right100.0","Threshold: 0.175",1,"imagery","right","yaw",93,0.124999997019768,0.124999997019768,5.42713263774312,"left",1169,0,"MISS"
"/home/kwm/julia/Experimente/2021-Imagery/LogFiles/Imagery","7003","w","23","right100.0","Threshold: 0.175",1,"imagery","right","yaw",94,-0.0749999970197678,0.0749999970197678,4.2202384931478,"right",2242,0,"FA"
"/home/kwm/julia/Experimente/2021-Imagery/LogFiles/Imagery","7003","w","23","right100.0","Threshold: 0.175",1,"imagery","right","yaw",95,-0.0249999970197677,0.0249999970197677,4.68171620991571,"right",1172,0,"FA"
"/home/kwm/julia/Experimente/2021-Imagery/LogFiles/Imagery","7003","w","23","right100.0","Threshold: 0.175",1,"imagery","right","yaw",96,-0.0749999970197678,0.0749999970197678,4.92608511107554,"left",1243,1,"CR"
"/home/kwm/julia/Experimente/2021-Imagery/LogFiles/Imagery","7003","w","23","right100.0","Threshold: 0.175",1,"imagery","right","yaw",97,0.0249999970197677,0.0249999970197677,5.11921697347524,"right",958,1,"HIT"
"/home/kwm/julia/Experimente/2021-Imagery/LogFiles/Imagery","7003","w","23","right100.0","Threshold: 0.175",1,"imagery","right","yaw",98,0.224999997019768,0.224999997019768,4.94783708361849,"left",858,0,"MISS"
"/home/kwm/julia/Experimente/2021-Imagery/LogFiles/Imagery","7003","w","23","right100.0","Threshold: 0.175",1,"imagery","right","yaw",99,-0.124999997019768,0.124999997019768,4.98381072209366,"right",3373,0,"FA"
"/home/kwm/julia/Experimente/2021-Imagery/LogFiles/Imagery","7003","w","23","right100.0","Threshold: 0.175",1,"imagery","right","yaw",100,0.224999997019768,0.224999997019768,4.8238188471101,"right",780,1,"HIT"
"/home/kwm/julia/Experimente/2021-Imagery/LogFiles/Imagery","7003","w","23","right100.0","Threshold: 0.175",1,"imagery","left","yaw",1,-0.224999997019768,0.224999997019768,5.11173600309079,"left",839,1,"CR"
"/home/kwm/julia/Experimente/2021-Imagery/LogFiles/Imagery","7003","w","23","right100.0","Threshold: 0.175",1,"imagery","left","yaw",2,0.224999997019768,0.224999997019768,5.23090991085453,"right",621,1,"HIT"
"/home/kwm/julia/Experimente/2021-Imagery/LogFiles/Imagery","7003","w","23","right100.0","Threshold: 0.175",1,"imagery","left","yaw",3,0.0249999970197677,0.0249999970197677,4.68200298487633,"right",1508,1,"HIT"
"/home/kwm/julia/Experimente/2021-Imagery/LogFiles/Imagery","7003","w","23","right100.0","Threshold: 0.175",1,"imagery","left","yaw",4,0.0249999970197677,0.0249999970197677,4.45720448644957,"right",996,1,"HIT"
"/home/kwm/julia/Experimente/2021-Imagery/LogFiles/Imagery","7003","w","23","right100.0","Threshold: 0.175",1,"imagery","left","yaw",5,0.124999997019768,0.124999997019768,4.66458959194381,"right",685,1,"HIT"
"/home/kwm/julia/Experimente/2021-Imagery/LogFiles/Imagery","7003","w","23","right100.0","Threshold: 0.175",1,"imagery","left","yaw",6,-0.0749999970197678,0.0749999970197678,4.83142586367279,"right",726,0,"FA"
"/home/kwm/julia/Experimente/2021-Imagery/LogFiles/Imagery","7003","w","23","right100.0","Threshold: 0.175",1,"imagery","left","yaw",7,0.0249999970197677,0.0249999970197677,5.29243423381002,"right",882,1,"HIT"
"/home/kwm/julia/Experimente/2021-Imagery/LogFiles/Imagery","7003","w","23","right100.0","Threshold: 0.175",1,"imagery","left","yaw",8,0.17499998,0.17499998,5.11614408388571,"left",753,0,"MISS"
"/home/kwm/julia/Experimente/2021-Imagery/LogFiles/Imagery","7003","w","23","right100.0","Threshold: 0.175",1,"imagery","left","yaw",9,-0.124999997019768,0.124999997019768,5.15937625113048,"left",795,1,"CR"
"/home/kwm/julia/Experimente/2021-Imagery/LogFiles/Imagery","7003","w","23","right100.0","Threshold: 0.175",1,"imagery","left","yaw",10,-0.17499998,0.17499998,4.96716912242574,"left",758,1,"CR"
"/home/kwm/julia/Experimente/2021-Imagery/LogFiles/Imagery","7003","w","23","right100.0","Threshold: 0.175",1,"imagery","left","yaw",11,0.17499998,0.17499998,5.07374847346008,"right",972,1,"HIT"
"/home/kwm/julia/Experimente/2021-Imagery/LogFiles/Imagery","7003","w","23","right100.0","Threshold: 0.175",1,"imagery","left","yaw",12,-0.124999997019768,0.124999997019768,5.00420746826908,"left",1320,1,"CR"
"/home/kwm/julia/Experimente/2021-Imagery/LogFiles/Imagery","7003","w","23","right100.0","Threshold: 0.175",1,"imagery","left","yaw",13,0.0749999970197678,0.0749999970197678,5.22881885408078,"right",893,1,"HIT"
"/home/kwm/julia/Experimente/2021-Imagery/LogFiles/Imagery","7003","w","23","right100.0","Threshold: 0.175",1,"imagery","left","yaw",14,-0.224999997019768,0.224999997019768,4.90231435146378,"left",672,1,"CR"
"/home/kwm/julia/Experimente/2021-Imagery/LogFiles/Imagery","7003","w","23","right100.0","Threshold: 0.175",1,"imagery","left","yaw",15,-0.0249999970197677,0.0249999970197677,5.14742181403654,"right",1012,0,"FA"
"/home/kwm/julia/Experimente/2021-Imagery/LogFiles/Imagery","7003","w","23","right100.0","Threshold: 0.175",1,"imagery","left","yaw",16,-0.124999997019768,0.124999997019768,5.53805795829896,"left",845,1,"CR"
"/home/kwm/julia/Experimente/2021-Imagery/LogFiles/Imagery","7003","w","23","right100.0","Threshold: 0.175",1,"imagery","left","yaw",17,-0.0249999970197677,0.0249999970197677,4.98354372179181,"right",1044,0,"FA"
"/home/kwm/julia/Experimente/2021-Imagery/LogFiles/Imagery","7003","w","23","right100.0","Threshold: 0.175",1,"imagery","left","yaw",18,0.0749999970197678,0.0749999970197678,4.6885607276741,"left",856,0,"MISS"
"/home/kwm/julia/Experimente/2021-Imagery/LogFiles/Imagery","7003","w","23","right100.0","Threshold: 0.175",1,"imagery","left","yaw",19,-0.124999997019768,0.124999997019768,5.19436699516155,"left",981,1,"CR"
"/home/kwm/julia/Experimente/2021-Imagery/LogFiles/Imagery","7003","w","23","right100.0","Threshold: 0.175",1,"imagery","left","yaw",20,0.224999997019768,0.224999997019768,4.76760661002019,"right",893,1,"HIT"
"/home/kwm/julia/Experimente/2021-Imagery/LogFiles/Imagery","7003","w","23","right100.0","Threshold: 0.175",1,"imagery","left","yaw",21,0.0249999970197677,0.0249999970197677,5.10247224910696,"right",1048,1,"HIT"
"/home/kwm/julia/Experimente/2021-Imagery/LogFiles/Imagery","7003","w","23","right100.0","Threshold: 0.175",1,"imagery","left","yaw",22,0.0749999970197678,0.0749999970197678,4.66338477672173,"left",1010,0,"MISS"
"/home/kwm/julia/Experimente/2021-Imagery/LogFiles/Imagery","7003","w","23","right100.0","Threshold: 0.175",1,"imagery","left","yaw",23,-0.224999997019768,0.224999997019768,5.51654309064828,"left",940,1,"CR"
"/home/kwm/julia/Experimente/2021-Imagery/LogFiles/Imagery","7003","w","23","right100.0","Threshold: 0.175",1,"imagery","left","yaw",24,0.0249999970197677,0.0249999970197677,4.73644723486462,"right",903,1,"HIT"
"/home/kwm/julia/Experimente/2021-Imagery/LogFiles/Imagery","7003","w","23","right100.0","Threshold: 0.175",1,"imagery","left","yaw",25,-0.124999997019768,0.124999997019768,4.75542932391018,"left",834,1,"CR"
"/home/kwm/julia/Experimente/2021-Imagery/LogFiles/Imagery","7003","w","23","right100.0","Threshold: 0.175",1,"imagery","left","yaw",26,0.124999997019768,0.124999997019768,4.81259497098715,"right",689,1,"HIT"
"/home/kwm/julia/Experimente/2021-Imagery/LogFiles/Imagery","7003","w","23","right100.0","Threshold: 0.175",1,"imagery","left","yaw",27,0.17499998,0.17499998,4.60391364510087,"right",746,1,"HIT"
"/home/kwm/julia/Experimente/2021-Imagery/LogFiles/Imagery","7003","w","23","right100.0","Threshold: 0.175",1,"imagery","left","yaw",28,-0.0249999970197677,0.0249999970197677,5.22130419818781,"right",1031,0,"FA"
"/home/kwm/julia/Experimente/2021-Imagery/LogFiles/Imagery","7003","w","23","right100.0","Threshold: 0.175",1,"imagery","left","yaw",29,-0.0749999970197678,0.0749999970197678,4.61223112164443,"right",1064,0,"FA"
"/home/kwm/julia/Experimente/2021-Imagery/LogFiles/Imagery","7003","w","23","right100.0","Threshold: 0.175",1,"imagery","left","yaw",30,0.0249999970197677,0.0249999970197677,4.76994252116156,"right",923,1,"HIT"
"/home/kwm/julia/Experimente/2021-Imagery/LogFiles/Imagery","7003","w","23","right100.0","Threshold: 0.175",1,"imagery","left","yaw",31,0.17499998,0.17499998,5.46067981943438,"right",830,1,"HIT"
"/home/kwm/julia/Experimente/2021-Imagery/LogFiles/Imagery","7003","w","23","right100.0","Threshold: 0.175",1,"imagery","left","yaw",32,0.224999997019768,0.224999997019768,4.72074311235648,"right",978,1,"HIT"
"/home/kwm/julia/Experimente/2021-Imagery/LogFiles/Imagery","7003","w","23","right100.0","Threshold: 0.175",1,"imagery","left","yaw",33,-0.224999997019768,0.224999997019768,4.90687350717543,"left",712,1,"CR"
"/home/kwm/julia/Experimente/2021-Imagery/LogFiles/Imagery","7003","w","23","right100.0","Threshold: 0.175",1,"imagery","left","yaw",34,0.224999997019768,0.224999997019768,4.23124329814025,"right",848,1,"HIT"
"/home/kwm/julia/Experimente/2021-Imagery/LogFiles/Imagery","7003","w","23","right100.0","Threshold: 0.175",1,"imagery","left","yaw",35,0.124999997019768,0.124999997019768,5.4316241520961,"left",918,0,"MISS"
"/home/kwm/julia/Experimente/2021-Imagery/LogFiles/Imagery","7003","w","23","right100.0","Threshold: 0.175",1,"imagery","left","yaw",36,-0.17499998,0.17499998,4.61903013763689,"left",862,1,"CR"
"/home/kwm/julia/Experimente/2021-Imagery/LogFiles/Imagery","7003","w","23","right100.0","Threshold: 0.175",1,"imagery","left","yaw",37,0.0249999970197677,0.0249999970197677,4.85182944777324,"right",973,1,"HIT"
"/home/kwm/julia/Experimente/2021-Imagery/LogFiles/Imagery","7003","w","23","right100.0","Threshold: 0.175",1,"imagery","left","yaw",38,0.224999997019768,0.224999997019768,5.06969094874678,"left",1212,0,"MISS"
"/home/kwm/julia/Experimente/2021-Imagery/LogFiles/Imagery","7003","w","23","right100.0","Threshold: 0.175",1,"imagery","left","yaw",39,-0.17499998,0.17499998,5.20371654246699,"right",909,0,"FA"
"/home/kwm/julia/Experimente/2021-Imagery/LogFiles/Imagery","7003","w","23","right100.0","Threshold: 0.175",1,"imagery","left","yaw",40,0.124999997019768,0.124999997019768,4.7398045704454,"right",844,1,"HIT"
"/home/kwm/julia/Experimente/2021-Imagery/LogFiles/Imagery","7003","w","23","right100.0","Threshold: 0.175",1,"imagery","left","yaw",41,-0.17499998,0.17499998,5.43625394930128,"right",833,0,"FA"
"/home/kwm/julia/Experimente/2021-Imagery/LogFiles/Imagery","7003","w","23","right100.0","Threshold: 0.175",1,"imagery","left","yaw",42,-0.224999997019768,0.224999997019768,5.11970561289525,"left",1038,1,"CR"
"/home/kwm/julia/Experimente/2021-Imagery/LogFiles/Imagery","7003","w","23","right100.0","Threshold: 0.175",1,"imagery","left","yaw",43,0.0749999970197678,0.0749999970197678,4.93746196538284,"right",1059,1,"HIT"
"/home/kwm/julia/Experimente/2021-Imagery/LogFiles/Imagery","7003","w","23","right100.0","Threshold: 0.175",1,"imagery","left","yaw",44,0.0749999970197678,0.0749999970197678,5.1462222563411,"right",1048,1,"HIT"
"/home/kwm/julia/Experimente/2021-Imagery/LogFiles/Imagery","7003","w","23","right100.0","Threshold: 0.175",1,"imagery","left","yaw",45,-0.224999997019768,0.224999997019768,4.95564283986025,"left",912,1,"CR"
"/home/kwm/julia/Experimente/2021-Imagery/LogFiles/Imagery","7003","w","23","right100.0","Threshold: 0.175",1,"imagery","left","yaw",46,0.124999997019768,0.124999997019768,5.04697899383123,"right",989,1,"HIT"
"/home/kwm/julia/Experimente/2021-Imagery/LogFiles/Imagery","7003","w","23","right100.0","Threshold: 0.175",1,"imagery","left","yaw",47,0.0249999970197677,0.0249999970197677,4.5434858176144,"left",2031,0,"MISS"
"/home/kwm/julia/Experimente/2021-Imagery/LogFiles/Imagery","7003","w","23","right100.0","Threshold: 0.175",1,"imagery","left","yaw",48,-0.224999997019768,0.224999997019768,4.58875247939737,"left",954,1,"CR"
"/home/kwm/julia/Experimente/2021-Imagery/LogFiles/Imagery","7003","w","23","right100.0","Threshold: 0.175",1,"imagery","left","yaw",49,0.224999997019768,0.224999997019768,5.14727780463415,"right",887,1,"HIT"
"/home/kwm/julia/Experimente/2021-Imagery/LogFiles/Imagery","7003","w","23","right100.0","Threshold: 0.175",1,"imagery","left","yaw",50,-0.124999997019768,0.124999997019768,4.79030933395543,"right",1022,0,"FA"
"/home/kwm/julia/Experimente/2021-Imagery/LogFiles/Imagery","7003","w","23","right100.0","Threshold: 0.175",1,"imagery","left","yaw",51,-0.0249999970197677,0.0249999970197677,5.20346263664713,"left",1227,1,"CR"
"/home/kwm/julia/Experimente/2021-Imagery/LogFiles/Imagery","7003","w","23","right100.0","Threshold: 0.175",1,"imagery","left","yaw",52,0.0749999970197678,0.0749999970197678,4.98913356568575,"left",919,0,"MISS"
"/home/kwm/julia/Experimente/2021-Imagery/LogFiles/Imagery","7003","w","23","right100.0","Threshold: 0.175",1,"imagery","left","yaw",53,0.0749999970197678,0.0749999970197678,5.01619348439966,"right",1108,1,"HIT"
"/home/kwm/julia/Experimente/2021-Imagery/LogFiles/Imagery","7003","w","23","right100.0","Threshold: 0.175",1,"imagery","left","yaw",54,-0.124999997019768,0.124999997019768,4.95220634148171,"right",1383,0,"FA"
"/home/kwm/julia/Experimente/2021-Imagery/LogFiles/Imagery","7003","w","23","right100.0","Threshold: 0.175",1,"imagery","left","yaw",55,-0.17499998,0.17499998,4.81041087888183,"left",921,1,"CR"
"/home/kwm/julia/Experimente/2021-Imagery/LogFiles/Imagery","7003","w","23","right100.0","Threshold: 0.175",1,"imagery","left","yaw",56,0.0249999970197677,0.0249999970197677,5.24318129668276,"right",3198,1,"HIT"
"/home/kwm/julia/Experimente/2021-Imagery/LogFiles/Imagery","7003","w","23","right100.0","Threshold: 0.175",1,"imagery","left","yaw",57,0.124999997019768,0.124999997019768,4.66298270184977,"right",874,1,"HIT"
"/home/kwm/julia/Experimente/2021-Imagery/LogFiles/Imagery","7003","w","23","right100.0","Threshold: 0.175",1,"imagery","left","yaw",58,0.124999997019768,0.124999997019768,5.16280184133557,"left",1102,0,"MISS"
"/home/kwm/julia/Experimente/2021-Imagery/LogFiles/Imagery","7003","w","23","right100.0","Threshold: 0.175",1,"imagery","left","yaw",59,-0.124999997019768,0.124999997019768,5.46449678775432,"right",1003,0,"FA"
"/home/kwm/julia/Experimente/2021-Imagery/LogFiles/Imagery","7003","w","23","right100.0","Threshold: 0.175",1,"imagery","left","yaw",60,-0.224999997019768,0.224999997019768,4.44873463467691,"right",919,0,"FA"
"/home/kwm/julia/Experimente/2021-Imagery/LogFiles/Imagery","7003","w","23","right100.0","Threshold: 0.175",1,"imagery","left","yaw",61,0.17499998,0.17499998,5.08166603011118,"right",859,1,"HIT"
"/home/kwm/julia/Experimente/2021-Imagery/LogFiles/Imagery","7003","w","23","right100.0","Threshold: 0.175",1,"imagery","left","yaw",62,0.17499998,0.17499998,5.40647794827864,"left",935,0,"MISS"
"/home/kwm/julia/Experimente/2021-Imagery/LogFiles/Imagery","7003","w","23","right100.0","Threshold: 0.175",1,"imagery","left","yaw",63,0.124999997019768,0.124999997019768,4.65095552725979,"right",1174,1,"HIT"
"/home/kwm/julia/Experimente/2021-Imagery/LogFiles/Imagery","7003","w","23","right100.0","Threshold: 0.175",1,"imagery","left","yaw",64,-0.17499998,0.17499998,4.76165699195027,"left",847,1,"CR"
"/home/kwm/julia/Experimente/2021-Imagery/LogFiles/Imagery","7003","w","23","right100.0","Threshold: 0.175",1,"imagery","left","yaw",65,-0.224999997019768,0.224999997019768,4.87144372076041,"right",1234,0,"FA"
"/home/kwm/julia/Experimente/2021-Imagery/LogFiles/Imagery","7003","w","23","right100.0","Threshold: 0.175",1,"imagery","left","yaw",66,0.224999997019768,0.224999997019768,5.25963189563506,"right",1033,1,"HIT"
"/home/kwm/julia/Experimente/2021-Imagery/LogFiles/Imagery","7003","w","23","right100.0","Threshold: 0.175",1,"imagery","left","yaw",67,0.224999997019768,0.224999997019768,5.61610831732391,"left",1010,0,"MISS"
"/home/kwm/julia/Experimente/2021-Imagery/LogFiles/Imagery","7003","w","23","right100.0","Threshold: 0.175",1,"imagery","left","yaw",68,-0.0249999970197677,0.0249999970197677,4.99859106636479,"right",1114,0,"FA"
"/home/kwm/julia/Experimente/2021-Imagery/LogFiles/Imagery","7003","w","23","right100.0","Threshold: 0.175",1,"imagery","left","yaw",69,-0.0749999970197678,0.0749999970197678,4.48534561952225,"right",985,0,"FA"
"/home/kwm/julia/Experimente/2021-Imagery/LogFiles/Imagery","7003","w","23","right100.0","Threshold: 0.175",1,"imagery","left","yaw",70,0.17499998,0.17499998,4.96244154933833,"right",887,1,"HIT"
"/home/kwm/julia/Experimente/2021-Imagery/LogFiles/Imagery","7003","w","23","right100.0","Threshold: 0.175",1,"imagery","left","yaw",71,-0.0749999970197678,0.0749999970197678,4.69597854639067,"right",1023,0,"FA"
"/home/kwm/julia/Experimente/2021-Imagery/LogFiles/Imagery","7003","w","23","right100.0","Threshold: 0.175",1,"imagery","left","yaw",72,0.17499998,0.17499998,4.67025059324549,"right",799,1,"HIT"
"/home/kwm/julia/Experimente/2021-Imagery/LogFiles/Imagery","7003","w","23","right100.0","Threshold: 0.175",1,"imagery","left","yaw",73,-0.0249999970197677,0.0249999970197677,5.13319551974602,"right",1136,0,"FA"
"/home/kwm/julia/Experimente/2021-Imagery/LogFiles/Imagery","7003","w","23","right100.0","Threshold: 0.175",1,"imagery","left","yaw",74,-0.0749999970197678,0.0749999970197678,4.58273049639192,"left",842,1,"CR"
"/home/kwm/julia/Experimente/2021-Imagery/LogFiles/Imagery","7003","w","23","right100.0","Threshold: 0.175",1,"imagery","left","yaw",75,-0.0249999970197677,0.0249999970197677,5.26534492799648,"left",1825,1,"CR"
"/home/kwm/julia/Experimente/2021-Imagery/LogFiles/Imagery","7003","w","23","right100.0","Threshold: 0.175",1,"imagery","left","yaw",76,0.224999997019768,0.224999997019768,5.51649125771621,"right",854,1,"HIT"
"/home/kwm/julia/Experimente/2021-Imagery/LogFiles/Imagery","7003","w","23","right100.0","Threshold: 0.175",1,"imagery","left","yaw",77,-0.17499998,0.17499998,4.90451849352895,"left",1106,1,"CR"
"/home/kwm/julia/Experimente/2021-Imagery/LogFiles/Imagery","7003","w","23","right100.0","Threshold: 0.175",1,"imagery","left","yaw",78,0.0749999970197678,0.0749999970197678,4.57652024228359,"right",798,1,"HIT"
"/home/kwm/julia/Experimente/2021-Imagery/LogFiles/Imagery","7003","w","23","right100.0","Threshold: 0.175",1,"imagery","left","yaw",79,-0.0749999970197678,0.0749999970197678,5.06243430714729,"right",855,0,"FA"
"/home/kwm/julia/Experimente/2021-Imagery/LogFiles/Imagery","7003","w","23","right100.0","Threshold: 0.175",1,"imagery","left","yaw",80,0.124999997019768,0.124999997019768,4.788870422105,"left",899,0,"MISS"
"/home/kwm/julia/Experimente/2021-Imagery/LogFiles/Imagery","7003","w","23","right100.0","Threshold: 0.175",1,"imagery","left","yaw",81,-0.0249999970197677,0.0249999970197677,5.3007484813895,"right",1924,0,"FA"
"/home/kwm/julia/Experimente/2021-Imagery/LogFiles/Imagery","7003","w","23","right100.0","Threshold: 0.175",1,"imagery","left","yaw",82,-0.17499998,0.17499998,5.12892996842281,"left",1009,1,"CR"
"/home/kwm/julia/Experimente/2021-Imagery/LogFiles/Imagery","7003","w","23","right100.0","Threshold: 0.175",1,"imagery","left","yaw",83,0.17499998,0.17499998,5.49988704815181,"right",753,1,"HIT"
"/home/kwm/julia/Experimente/2021-Imagery/LogFiles/Imagery","7003","w","23","right100.0","Threshold: 0.175",1,"imagery","left","yaw",84,0.224999997019768,0.224999997019768,5.00138005941502,"right",935,1,"HIT"
"/home/kwm/julia/Experimente/2021-Imagery/LogFiles/Imagery","7003","w","23","right100.0","Threshold: 0.175",1,"imagery","left","yaw",85,-0.124999997019768,0.124999997019768,5.39705275275025,"left",764,1,"CR"
"/home/kwm/julia/Experimente/2021-Imagery/LogFiles/Imagery","7003","w","23","right100.0","Threshold: 0.175",1,"imagery","left","yaw",86,0.0249999970197677,0.0249999970197677,5.14268959728312,"right",1047,1,"HIT"
"/home/kwm/julia/Experimente/2021-Imagery/LogFiles/Imagery","7003","w","23","right100.0","Threshold: 0.175",1,"imagery","left","yaw",87,-0.0749999970197678,0.0749999970197678,4.58293710297046,"left",873,1,"CR"
"/home/kwm/julia/Experimente/2021-Imagery/LogFiles/Imagery","7003","w","23","right100.0","Threshold: 0.175",1,"imagery","left","yaw",88,-0.224999997019768,0.224999997019768,4.98868917071419,"left",919,1,"CR"
"/home/kwm/julia/Experimente/2021-Imagery/LogFiles/Imagery","7003","w","23","right100.0","Threshold: 0.175",1,"imagery","left","yaw",89,-0.0249999970197677,0.0249999970197677,5.32635380360282,"right",1086,0,"FA"
"/home/kwm/julia/Experimente/2021-Imagery/LogFiles/Imagery","7003","w","23","right100.0","Threshold: 0.175",1,"imagery","left","yaw",90,0.17499998,0.17499998,5.46476575336597,"right",876,1,"HIT"
"/home/kwm/julia/Experimente/2021-Imagery/LogFiles/Imagery","7003","w","23","right100.0","Threshold: 0.175",1,"imagery","left","yaw",91,-0.0749999970197678,0.0749999970197678,5.0183658448475,"left",971,1,"CR"
"/home/kwm/julia/Experimente/2021-Imagery/LogFiles/Imagery","7003","w","23","right100.0","Threshold: 0.175",1,"imagery","left","yaw",92,-0.0249999970197677,0.0249999970197677,4.9472442620172,"left",1038,1,"CR"
"/home/kwm/julia/Experimente/2021-Imagery/LogFiles/Imagery","7003","w","23","right100.0","Threshold: 0.175",1,"imagery","left","yaw",93,0.0749999970197678,0.0749999970197678,5.27930587374409,"right",732,1,"HIT"
"/home/kwm/julia/Experimente/2021-Imagery/LogFiles/Imagery","7003","w","23","right100.0","Threshold: 0.175",1,"imagery","left","yaw",94,-0.0749999970197678,0.0749999970197678,5.16754796054576,"left",835,1,"CR"
"/home/kwm/julia/Experimente/2021-Imagery/LogFiles/Imagery","7003","w","23","right100.0","Threshold: 0.175",1,"imagery","left","yaw",95,0.124999997019768,0.124999997019768,4.94992399083511,"right",926,1,"HIT"
"/home/kwm/julia/Experimente/2021-Imagery/LogFiles/Imagery","7003","w","23","right100.0","Threshold: 0.175",1,"imagery","left","yaw",96,-0.17499998,0.17499998,5.08036097842565,"left",869,1,"CR"
"/home/kwm/julia/Experimente/2021-Imagery/LogFiles/Imagery","7003","w","23","right100.0","Threshold: 0.175",1,"imagery","left","yaw",97,-0.124999997019768,0.124999997019768,5.25017870105986,"right",1018,0,"FA"
"/home/kwm/julia/Experimente/2021-Imagery/LogFiles/Imagery","7003","w","23","right100.0","Threshold: 0.175",1,"imagery","left","yaw",98,-0.17499998,0.17499998,5.16895893612133,"left",843,1,"CR"
"/home/kwm/julia/Experimente/2021-Imagery/LogFiles/Imagery","7003","w","23","right100.0","Threshold: 0.175",1,"imagery","left","yaw",99,-0.0749999970197678,0.0749999970197678,5.3211520469961,"right",915,0,"FA"
"/home/kwm/julia/Experimente/2021-Imagery/LogFiles/Imagery","7003","w","23","right100.0","Threshold: 0.175",1,"imagery","left","yaw",100,0.0749999970197678,0.0749999970197678,4.3494650180657,"left",863,0,"MISS"
"/home/kwm/julia/Experimente/2021-Imagery/LogFiles/Imagery","7003","w","23","right100.0","Threshold: 0.175",1,"probability","right","yaw",1,-0.0249999970197677,0.0249999970197677,5.41060988854417,"right",1073,0,"FA"
"/home/kwm/julia/Experimente/2021-Imagery/LogFiles/Imagery","7003","w","23","right100.0","Threshold: 0.175",1,"probability","right","yaw",2,0.224999997019768,0.224999997019768,5.46884299280373,"right",631,1,"HIT"
"/home/kwm/julia/Experimente/2021-Imagery/LogFiles/Imagery","7003","w","23","right100.0","Threshold: 0.175",1,"probability","right","yaw",3,-0.17499998,0.17499998,4.55669705233457,"left",678,1,"CR"
"/home/kwm/julia/Experimente/2021-Imagery/LogFiles/Imagery","7003","w","23","right100.0","Threshold: 0.175",1,"probability","right","yaw",4,-0.124999997019768,0.124999997019768,4.88653309452048,"left",621,1,"CR"
"/home/kwm/julia/Experimente/2021-Imagery/LogFiles/Imagery","7003","w","23","right100.0","Threshold: 0.175",1,"probability","right","yaw",5,0.124999997019768,0.124999997019768,4.97711247798458,"left",610,0,"MISS"
"/home/kwm/julia/Experimente/2021-Imagery/LogFiles/Imagery","7003","w","23","right100.0","Threshold: 0.175",1,"probability","right","yaw",6,0.0749999970197678,0.0749999970197678,4.77824869498611,"right",675,1,"HIT"
"/home/kwm/julia/Experimente/2021-Imagery/LogFiles/Imagery","7003","w","23","right100.0","Threshold: 0.175",1,"probability","right","yaw",7,-0.17499998,0.17499998,4.61643813657509,"left",527,1,"CR"
"/home/kwm/julia/Experimente/2021-Imagery/LogFiles/Imagery","7003","w","23","right100.0","Threshold: 0.175",1,"probability","right","yaw",8,0.0249999970197677,0.0249999970197677,5.02400190489395,"right",2720,1,"HIT"
"/home/kwm/julia/Experimente/2021-Imagery/LogFiles/Imagery","7003","w","23","right100.0","Threshold: 0.175",1,"probability","right","yaw",9,0.224999997019768,0.224999997019768,4.88555968749506,"right",724,1,"HIT"
"/home/kwm/julia/Experimente/2021-Imagery/LogFiles/Imagery","7003","w","23","right100.0","Threshold: 0.175",1,"probability","right","yaw",10,-0.124999997019768,0.124999997019768,4.72039607358948,"left",973,1,"CR"
"/home/kwm/julia/Experimente/2021-Imagery/LogFiles/Imagery","7003","w","23","right100.0","Threshold: 0.175",1,"probability","right","yaw",11,0.224999997019768,0.224999997019768,4.81220569197837,"right",558,1,"HIT"
"/home/kwm/julia/Experimente/2021-Imagery/LogFiles/Imagery","7003","w","23","right100.0","Threshold: 0.175",1,"probability","right","yaw",12,-0.124999997019768,0.124999997019768,5.53054683339137,"left",750,1,"CR"
"/home/kwm/julia/Experimente/2021-Imagery/LogFiles/Imagery","7003","w","23","right100.0","Threshold: 0.175",1,"probability","right","yaw",13,-0.17499998,0.17499998,5.04823735427906,"left",734,1,"CR"
"/home/kwm/julia/Experimente/2021-Imagery/LogFiles/Imagery","7003","w","23","right100.0","Threshold: 0.175",1,"probability","right","yaw",14,0.17499998,0.17499998,5.06000930949384,"right",985,1,"HIT"
"/home/kwm/julia/Experimente/2021-Imagery/LogFiles/Imagery","7003","w","23","right100.0","Threshold: 0.175",1,"probability","right","yaw",15,-0.0749999970197678,0.0749999970197678,5.27785592369491,"right",958,0,"FA"
"/home/kwm/julia/Experimente/2021-Imagery/LogFiles/Imagery","7003","w","23","right100.0","Threshold: 0.175",1,"probability","right","yaw",16,-0.224999997019768,0.224999997019768,4.74696422170678,"right",885,0,"FA"
"/home/kwm/julia/Experimente/2021-Imagery/LogFiles/Imagery","7003","w","23","right100.0","Threshold: 0.175",1,"probability","right","yaw",17,-0.0249999970197677,0.0249999970197677,4.87783017785769,"left",888,1,"CR"
"/home/kwm/julia/Experimente/2021-Imagery/LogFiles/Imagery","7003","w","23","right100.0","Threshold: 0.175",1,"probability","right","yaw",18,-0.124999997019768,0.124999997019768,5.38998184009883,"left",814,1,"CR"
"/home/kwm/julia/Experimente/2021-Imagery/LogFiles/Imagery","7003","w","23","right100.0","Threshold: 0.175",1,"probability","right","yaw",19,0.0249999970197677,0.0249999970197677,4.93192950467871,"right",1313,1,"HIT"
"/home/kwm/julia/Experimente/2021-Imagery/LogFiles/Imagery","7003","w","23","right100.0","Threshold: 0.175",1,"probability","right","yaw",20,-0.124999997019768,0.124999997019768,5.23675612704181,"right",1007,0,"FA"
"/home/kwm/julia/Experimente/2021-Imagery/LogFiles/Imagery","7003","w","23","right100.0","Threshold: 0.175",1,"probability","right","yaw",21,0.124999997019768,0.124999997019768,5.24409458627208,"left",889,0,"MISS"
"/home/kwm/julia/Experimente/2021-Imagery/LogFiles/Imagery","7003","w","23","right100.0","Threshold: 0.175",1,"probability","right","yaw",22,-0.17499998,0.17499998,5.33965183168582,"left",930,1,"CR"
"/home/kwm/julia/Experimente/2021-Imagery/LogFiles/Imagery","7003","w","23","right100.0","Threshold: 0.175",1,"probability","right","yaw",23,0.0749999970197678,0.0749999970197678,5.24716041631511,"right",889,1,"HIT"
"/home/kwm/julia/Experimente/2021-Imagery/LogFiles/Imagery","7003","w","23","right100.0","Threshold: 0.175",1,"probability","right","yaw",24,-0.0749999970197678,0.0749999970197678,4.88193607773581,"left",1020,1,"CR"
"/home/kwm/julia/Experimente/2021-Imagery/LogFiles/Imagery","7003","w","23","right100.0","Threshold: 0.175",1,"probability","right","yaw",25,0.0249999970197677,0.0249999970197677,5.02758746475714,"right",1126,1,"HIT"
"/home/kwm/julia/Experimente/2021-Imagery/LogFiles/Imagery","7003","w","23","right100.0","Threshold: 0.175",1,"probability","right","yaw",26,-0.0249999970197677,0.0249999970197677,4.72411090061022,"right",1067,0,"FA"
"/home/kwm/julia/Experimente/2021-Imagery/LogFiles/Imagery","7003","w","23","right100.0","Threshold: 0.175",1,"probability","right","yaw",27,0.224999997019768,0.224999997019768,5.30670044503182,"left",1240,0,"MISS"
"/home/kwm/julia/Experimente/2021-Imagery/LogFiles/Imagery","7003","w","23","right100.0","Threshold: 0.175",1,"probability","right","yaw",28,-0.224999997019768,0.224999997019768,5.08886146683108,"left",796,1,"CR"
"/home/kwm/julia/Experimente/2021-Imagery/LogFiles/Imagery","7003","w","23","right100.0","Threshold: 0.175",1,"probability","right","yaw",29,0.124999997019768,0.124999997019768,4.92809499661887,"right",701,1,"HIT"
"/home/kwm/julia/Experimente/2021-Imagery/LogFiles/Imagery","7003","w","23","right100.0","Threshold: 0.175",1,"probability","right","yaw",30,-0.224999997019768,0.224999997019768,4.77164501706761,"left",882,1,"CR"
"/home/kwm/julia/Experimente/2021-Imagery/LogFiles/Imagery","7003","w","23","right100.0","Threshold: 0.175",1,"probability","right","yaw",31,0.0749999970197678,0.0749999970197678,4.73880781079554,"right",933,1,"HIT"
"/home/kwm/julia/Experimente/2021-Imagery/LogFiles/Imagery","7003","w","23","right100.0","Threshold: 0.175",1,"probability","right","yaw",32,0.17499998,0.17499998,5.14579173514086,"right",1158,1,"HIT"
"/home/kwm/julia/Experimente/2021-Imagery/LogFiles/Imagery","7003","w","23","right100.0","Threshold: 0.175",1,"probability","right","yaw",33,-0.0249999970197677,0.0249999970197677,4.86757067782197,"left",5606,1,"CR"
"/home/kwm/julia/Experimente/2021-Imagery/LogFiles/Imagery","7003","w","23","right100.0","Threshold: 0.175",1,"probability","right","yaw",34,0.224999997019768,0.224999997019768,5.21017418995493,"left",772,0,"MISS"
"/home/kwm/julia/Experimente/2021-Imagery/LogFiles/Imagery","7003","w","23","right100.0","Threshold: 0.175",1,"probability","right","yaw",35,0.0249999970197677,0.0249999970197677,5.28113039129003,"right",1139,1,"HIT"
"/home/kwm/julia/Experimente/2021-Imagery/LogFiles/Imagery","7003","w","23","right100.0","Threshold: 0.175",1,"probability","right","yaw",36,-0.17499998,0.17499998,4.92741676946861,"left",814,1,"CR"
"/home/kwm/julia/Experimente/2021-Imagery/LogFiles/Imagery","7003","w","23","right100.0","Threshold: 0.175",1,"probability","right","yaw",37,-0.0749999970197678,0.0749999970197678,4.61058715734838,"right",874,0,"FA"
"/home/kwm/julia/Experimente/2021-Imagery/LogFiles/Imagery","7003","w","23","right100.0","Threshold: 0.175",1,"probability","right","yaw",38,-0.0749999970197678,0.0749999970197678,4.9554510813057,"left",1169,1,"CR"
"/home/kwm/julia/Experimente/2021-Imagery/LogFiles/Imagery","7003","w","23","right100.0","Threshold: 0.175",1,"probability","right","yaw",39,-0.0249999970197677,0.0249999970197677,5.17675356039099,"left",1021,1,"CR"
"/home/kwm/julia/Experimente/2021-Imagery/LogFiles/Imagery","7003","w","23","right100.0","Threshold: 0.175",1,"probability","right","yaw",40,-0.0749999970197678,0.0749999970197678,5.27279821296042,"right",962,0,"FA"
"/home/kwm/julia/Experimente/2021-Imagery/LogFiles/Imagery","7003","w","23","right100.0","Threshold: 0.175",1,"probability","right","yaw",41,0.0249999970197677,0.0249999970197677,5.36187635679861,"left",978,0,"MISS"
"/home/kwm/julia/Experimente/2021-Imagery/LogFiles/Imagery","7003","w","23","right100.0","Threshold: 0.175",1,"probability","right","yaw",42,-0.124999997019768,0.124999997019768,4.92086480193138,"left",830,1,"CR"
"/home/kwm/julia/Experimente/2021-Imagery/LogFiles/Imagery","7003","w","23","right100.0","Threshold: 0.175",1,"probability","right","yaw",43,0.0749999970197678,0.0749999970197678,4.79636108836239,"left",871,0,"MISS"
"/home/kwm/julia/Experimente/2021-Imagery/LogFiles/Imagery","7003","w","23","right100.0","Threshold: 0.175",1,"probability","right","yaw",44,-0.124999997019768,0.124999997019768,4.85740701193709,"left",903,1,"CR"
"/home/kwm/julia/Experimente/2021-Imagery/LogFiles/Imagery","7003","w","23","right100.0","Threshold: 0.175",1,"probability","right","yaw",45,-0.0749999970197678,0.0749999970197678,5.44734677554048,"left",958,1,"CR"
"/home/kwm/julia/Experimente/2021-Imagery/LogFiles/Imagery","7003","w","23","right100.0","Threshold: 0.175",1,"probability","right","yaw",46,0.124999997019768,0.124999997019768,5.25084303579611,"right",796,1,"HIT"
"/home/kwm/julia/Experimente/2021-Imagery/LogFiles/Imagery","7003","w","23","right100.0","Threshold: 0.175",1,"probability","right","yaw",47,0.124999997019768,0.124999997019768,4.90942243068191,"left",831,0,"MISS"
"/home/kwm/julia/Experimente/2021-Imagery/LogFiles/Imagery","7003","w","23","right100.0","Threshold: 0.175",1,"probability","right","yaw",48,-0.0749999970197678,0.0749999970197678,5.24902013947816,"left",830,1,"CR"
"/home/kwm/julia/Experimente/2021-Imagery/LogFiles/Imagery","7003","w","23","right100.0","Threshold: 0.175",1,"probability","right","yaw",49,0.0749999970197678,0.0749999970197678,4.79145206776924,"right",902,1,"HIT"
"/home/kwm/julia/Experimente/2021-Imagery/LogFiles/Imagery","7003","w","23","right100.0","Threshold: 0.175",1,"probability","right","yaw",50,-0.224999997019768,0.224999997019768,4.96035579717175,"left",717,1,"CR"
"/home/kwm/julia/Experimente/2021-Imagery/LogFiles/Imagery","7003","w","23","right100.0","Threshold: 0.175",1,"probability","right","yaw",51,-0.224999997019768,0.224999997019768,5.09130552311905,"right",1279,0,"FA"
"/home/kwm/julia/Experimente/2021-Imagery/LogFiles/Imagery","7003","w","23","right100.0","Threshold: 0.175",1,"probability","right","yaw",52,-0.224999997019768,0.224999997019768,4.61686490915825,"left",767,1,"CR"
"/home/kwm/julia/Experimente/2021-Imagery/LogFiles/Imagery","7003","w","23","right100.0","Threshold: 0.175",1,"probability","right","yaw",53,0.17499998,0.17499998,4.83717763070984,"left",584,0,"MISS"
"/home/kwm/julia/Experimente/2021-Imagery/LogFiles/Imagery","7003","w","23","right100.0","Threshold: 0.175",1,"probability","right","yaw",54,0.17499998,0.17499998,4.92462895023167,"left",838,0,"MISS"
"/home/kwm/julia/Experimente/2021-Imagery/LogFiles/Imagery","7003","w","23","right100.0","Threshold: 0.175",1,"probability","right","yaw",55,0.224999997019768,0.224999997019768,5.34598607589434,"right",1039,1,"HIT"
"/home/kwm/julia/Experimente/2021-Imagery/LogFiles/Imagery","7003","w","23","right100.0","Threshold: 0.175",1,"probability","right","yaw",56,0.124999997019768,0.124999997019768,4.73504637887522,"left",870,0,"MISS"
"/home/kwm/julia/Experimente/2021-Imagery/LogFiles/Imagery","7003","w","23","right100.0","Threshold: 0.175",1,"probability","right","yaw",57,0.0249999970197677,0.0249999970197677,5.00982088956033,"right",1468,1,"HIT"
"/home/kwm/julia/Experimente/2021-Imagery/LogFiles/Imagery","7003","w","23","right100.0","Threshold: 0.175",1,"probability","right","yaw",58,0.0749999970197678,0.0749999970197678,5.14138695424028,"left",769,0,"MISS"
"/home/kwm/julia/Experimente/2021-Imagery/LogFiles/Imagery","7003","w","23","right100.0","Threshold: 0.175",1,"probability","right","yaw",59,-0.0249999970197677,0.0249999970197677,4.65581530642772,"right",1005,0,"FA"
"/home/kwm/julia/Experimente/2021-Imagery/LogFiles/Imagery","7003","w","23","right100.0","Threshold: 0.175",1,"probability","right","yaw",60,0.0749999970197678,0.0749999970197678,4.69938609921063,"right",961,1,"HIT"
"/home/kwm/julia/Experimente/2021-Imagery/LogFiles/Imagery","7003","w","23","right100.0","Threshold: 0.175",1,"probability","right","yaw",61,0.124999997019768,0.124999997019768,4.86024583547943,"left",821,0,"MISS"
"/home/kwm/julia/Experimente/2021-Imagery/LogFiles/Imagery","7003","w","23","right100.0","Threshold: 0.175",1,"probability","right","yaw",62,-0.224999997019768,0.224999997019768,4.59419940616783,"left",819,1,"CR"
"/home/kwm/julia/Experimente/2021-Imagery/LogFiles/Imagery","7003","w","23","right100.0","Threshold: 0.175",1,"probability","right","yaw",63,-0.124999997019768,0.124999997019768,5.07201657733482,"right",918,0,"FA"
"/home/kwm/julia/Experimente/2021-Imagery/LogFiles/Imagery","7003","w","23","right100.0","Threshold: 0.175",1,"probability","right","yaw",64,0.0249999970197677,0.0249999970197677,5.23701959006716,"left",968,0,"MISS"
"/home/kwm/julia/Experimente/2021-Imagery/LogFiles/Imagery","7003","w","23","right100.0","Threshold: 0.175",1,"probability","right","yaw",65,0.0749999970197678,0.0749999970197678,4.7623859903238,"left",1092,0,"MISS"
"/home/kwm/julia/Experimente/2021-Imagery/LogFiles/Imagery","7003","w","23","right100.0","Threshold: 0.175",1,"probability","right","yaw",66,-0.0749999970197678,0.0749999970197678,4.69857605829718,"left",936,1,"CR"
"/home/kwm/julia/Experimente/2021-Imagery/LogFiles/Imagery","7003","w","23","right100.0","Threshold: 0.175",1,"probability","right","yaw",67,0.0749999970197678,0.0749999970197678,4.71074674888707,"right",719,1,"HIT"
"/home/kwm/julia/Experimente/2021-Imagery/LogFiles/Imagery","7003","w","23","right100.0","Threshold: 0.175",1,"probability","right","yaw",68,0.224999997019768,0.224999997019768,4.64617235077028,"left",967,0,"MISS"
"/home/kwm/julia/Experimente/2021-Imagery/LogFiles/Imagery","7003","w","23","right100.0","Threshold: 0.175",1,"probability","right","yaw",69,0.224999997019768,0.224999997019768,4.71431969245561,"left",970,0,"MISS"
"/home/kwm/julia/Experimente/2021-Imagery/LogFiles/Imagery","7003","w","23","right100.0","Threshold: 0.175",1,"probability","right","yaw",70,-0.124999997019768,0.124999997019768,5.10915109953425,"right",743,0,"FA"
"/home/kwm/julia/Experimente/2021-Imagery/LogFiles/Imagery","7003","w","23","right100.0","Threshold: 0.175",1,"probability","right","yaw",71,0.0749999970197678,0.0749999970197678,4.85237880360753,"left",885,0,"MISS"
"/home/kwm/julia/Experimente/2021-Imagery/LogFiles/Imagery","7003","w","23","right100.0","Threshold: 0.175",1,"probability","right","yaw",72,-0.0749999970197678,0.0749999970197678,5.31054748312698,"left",835,1,"CR"
"/home/kwm/julia/Experimente/2021-Imagery/LogFiles/Imagery","7003","w","23","right100.0","Threshold: 0.175",1,"probability","right","yaw",73,-0.0249999970197677,0.0249999970197677,5.17457007768344,"left",1010,1,"CR"
"/home/kwm/julia/Experimente/2021-Imagery/LogFiles/Imagery","7003","w","23","right100.0","Threshold: 0.175",1,"probability","right","yaw",74,-0.17499998,0.17499998,5.25370732875117,"left",909,1,"CR"
"/home/kwm/julia/Experimente/2021-Imagery/LogFiles/Imagery","7003","w","23","right100.0","Threshold: 0.175",1,"probability","right","yaw",75,0.17499998,0.17499998,4.67296102970725,"left",860,0,"MISS"
"/home/kwm/julia/Experimente/2021-Imagery/LogFiles/Imagery","7003","w","23","right100.0","Threshold: 0.175",1,"probability","right","yaw",76,0.0249999970197677,0.0249999970197677,5.00383387531321,"right",1058,1,"HIT"
"/home/kwm/julia/Experimente/2021-Imagery/LogFiles/Imagery","7003","w","23","right100.0","Threshold: 0.175",1,"probability","right","yaw",77,0.17499998,0.17499998,5.56736145190448,"left",1111,0,"MISS"
"/home/kwm/julia/Experimente/2021-Imagery/LogFiles/Imagery","7003","w","23","right100.0","Threshold: 0.175",1,"probability","right","yaw",78,0.0249999970197677,0.0249999970197677,4.61176041809463,"right",1043,1,"HIT"
"/home/kwm/julia/Experimente/2021-Imagery/LogFiles/Imagery","7003","w","23","right100.0","Threshold: 0.175",1,"probability","right","yaw",79,0.0249999970197677,0.0249999970197677,4.59123346137103,"left",1101,0,"MISS"
"/home/kwm/julia/Experimente/2021-Imagery/LogFiles/Imagery","7003","w","23","right100.0","Threshold: 0.175",1,"probability","right","yaw",80,0.17499998,0.17499998,4.97782311182944,"right",914,1,"HIT"
"/home/kwm/julia/Experimente/2021-Imagery/LogFiles/Imagery","7003","w","23","right100.0","Threshold: 0.175",1,"probability","right","yaw",81,-0.124999997019768,0.124999997019768,4.69478100576756,"left",718,1,"CR"
"/home/kwm/julia/Experimente/2021-Imagery/LogFiles/Imagery","7003","w","23","right100.0","Threshold: 0.175",1,"probability","right","yaw",82,0.224999997019768,0.224999997019768,4.56976399026683,"right",661,1,"HIT"
"/home/kwm/julia/Experimente/2021-Imagery/LogFiles/Imagery","7003","w","23","right100.0","Threshold: 0.175",1,"probability","right","yaw",83,-0.17499998,0.17499998,4.63583673641837,"left",745,1,"CR"
"/home/kwm/julia/Experimente/2021-Imagery/LogFiles/Imagery","7003","w","23","right100.0","Threshold: 0.175",1,"probability","right","yaw",84,0.17499998,0.17499998,5.04500810327837,"right",769,1,"HIT"
"/home/kwm/julia/Experimente/2021-Imagery/LogFiles/Imagery","7003","w","23","right100.0","Threshold: 0.175",1,"probability","right","yaw",85,-0.224999997019768,0.224999997019768,4.70024562990108,"left",803,1,"CR"
"/home/kwm/julia/Experimente/2021-Imagery/LogFiles/Imagery","7003","w","23","right100.0","Threshold: 0.175",1,"probability","right","yaw",86,-0.0749999970197678,0.0749999970197678,5.28816181508931,"right",1074,0,"FA"
"/home/kwm/julia/Experimente/2021-Imagery/LogFiles/Imagery","7003","w","23","right100.0","Threshold: 0.175",1,"probability","right","yaw",87,0.224999997019768,0.224999997019768,4.85176934592636,"left",890,0,"MISS"
"/home/kwm/julia/Experimente/2021-Imagery/LogFiles/Imagery","7003","w","23","right100.0","Threshold: 0.175",1,"probability","right","yaw",88,-0.17499998,0.17499998,5.14901146210099,"left",1184,1,"CR"
"/home/kwm/julia/Experimente/2021-Imagery/LogFiles/Imagery","7003","w","23","right100.0","Threshold: 0.175",1,"probability","right","yaw",89,-0.224999997019768,0.224999997019768,5.14184060535001,"left",1032,1,"CR"
"/home/kwm/julia/Experimente/2021-Imagery/LogFiles/Imagery","7003","w","23","right100.0","Threshold: 0.175",1,"probability","right","yaw",90,-0.17499998,0.17499998,4.82545208636125,"right",1125,0,"FA"
"/home/kwm/julia/Experimente/2021-Imagery/LogFiles/Imagery","7003","w","23","right100.0","Threshold: 0.175",1,"probability","right","yaw",91,0.124999997019768,0.124999997019768,4.69356918555849,"left",1066,0,"MISS"
"/home/kwm/julia/Experimente/2021-Imagery/LogFiles/Imagery","7003","w","23","right100.0","Threshold: 0.175",1,"probability","right","yaw",92,0.124999997019768,0.124999997019768,4.64372799596228,"right",845,1,"HIT"
"/home/kwm/julia/Experimente/2021-Imagery/LogFiles/Imagery","7003","w","23","right100.0","Threshold: 0.175",1,"probability","right","yaw",93,0.124999997019768,0.124999997019768,5.23454780788708,"left",807,0,"MISS"
"/home/kwm/julia/Experimente/2021-Imagery/LogFiles/Imagery","7003","w","23","right100.0","Threshold: 0.175",1,"probability","right","yaw",94,0.17499998,0.17499998,4.70281803329622,"right",984,1,"HIT"
"/home/kwm/julia/Experimente/2021-Imagery/LogFiles/Imagery","7003","w","23","right100.0","Threshold: 0.175",1,"probability","right","yaw",95,-0.0249999970197677,0.0249999970197677,4.99065302433231,"left",2171,1,"CR"
"/home/kwm/julia/Experimente/2021-Imagery/LogFiles/Imagery","7003","w","23","right100.0","Threshold: 0.175",1,"probability","right","yaw",96,0.17499998,0.17499998,4.97335638648312,"right",1111,1,"HIT"
"/home/kwm/julia/Experimente/2021-Imagery/LogFiles/Imagery","7003","w","23","right100.0","Threshold: 0.175",1,"probability","right","yaw",97,-0.0249999970197677,0.0249999970197677,4.92418899766969,"left",1058,1,"CR"
"/home/kwm/julia/Experimente/2021-Imagery/LogFiles/Imagery","7003","w","23","right100.0","Threshold: 0.175",1,"probability","right","yaw",98,-0.0249999970197677,0.0249999970197677,4.9245997777082,"right",1123,0,"FA"
"/home/kwm/julia/Experimente/2021-Imagery/LogFiles/Imagery","7003","w","23","right100.0","Threshold: 0.175",1,"probability","right","yaw",99,-0.17499998,0.17499998,5.00788619265616,"left",883,1,"CR"
"/home/kwm/julia/Experimente/2021-Imagery/LogFiles/Imagery","7003","w","23","right100.0","Threshold: 0.175",1,"probability","right","yaw",100,-0.224999997019768,0.224999997019768,4.34748668661822,"left",1281,1,"CR"
"/home/kwm/julia/Experimente/2021-Imagery/LogFiles/Imagery","7004","w","24","right100.0","Threshold: 1.425",1,"imagery","left","yaw",1,1.27499995231628,1.27499995231628,4.84748323737385,"right",2349,1,"HIT"
"/home/kwm/julia/Experimente/2021-Imagery/LogFiles/Imagery","7004","w","24","right100.0","Threshold: 1.425",1,"imagery","left","yaw",2,-1.27499995231628,1.27499995231628,4.93263129829196,"left",2702,1,"CR"
"/home/kwm/julia/Experimente/2021-Imagery/LogFiles/Imagery","7004","w","24","right100.0","Threshold: 1.425",1,"imagery","left","yaw",3,1.47499995231628,1.47499995231628,5.13094675760918,"right",1858,1,"HIT"
"/home/kwm/julia/Experimente/2021-Imagery/LogFiles/Imagery","7004","w","24","right100.0","Threshold: 1.425",1,"imagery","left","yaw",4,1.27499995231628,1.27499995231628,5.16491340652907,"right",1633,1,"HIT"
"/home/kwm/julia/Experimente/2021-Imagery/LogFiles/Imagery","7004","w","24","right100.0","Threshold: 1.425",1,"imagery","left","yaw",5,1.37499995231628,1.37499995231628,4.89892779137961,"right",1227,1,"HIT"
"/home/kwm/julia/Experimente/2021-Imagery/LogFiles/Imagery","7004","w","24","right100.0","Threshold: 1.425",1,"imagery","left","yaw",6,-1.32499995231628,1.32499995231628,4.56138779270862,"right",2902,0,"FA"
"/home/kwm/julia/Experimente/2021-Imagery/LogFiles/Imagery","7004","w","24","right100.0","Threshold: 1.425",1,"imagery","left","yaw",7,-1.47499995231628,1.47499995231628,5.40170762473026,"left",1034,1,"CR"
"/home/kwm/julia/Experimente/2021-Imagery/LogFiles/Imagery","7004","w","24","right100.0","Threshold: 1.425",1,"imagery","left","yaw",8,-1.37499995231628,1.37499995231628,5.21783184506571,"left",1522,1,"CR"
"/home/kwm/julia/Experimente/2021-Imagery/LogFiles/Imagery","7004","w","24","right100.0","Threshold: 1.425",1,"imagery","left","yaw",9,1.47499995231628,1.47499995231628,4.99628013802621,"right",1221,1,"HIT"
"/home/kwm/julia/Experimente/2021-Imagery/LogFiles/Imagery","7004","w","24","right100.0","Threshold: 1.425",1,"imagery","left","yaw",10,-1.47499995231628,1.47499995231628,4.55395133413057,"left",1048,1,"CR"
"/home/kwm/julia/Experimente/2021-Imagery/LogFiles/Imagery","7004","w","24","right100.0","Threshold: 1.425",1,"imagery","left","yaw",11,1.27499995231628,1.27499995231628,5.51199334400394,"right",1341,1,"HIT"
"/home/kwm/julia/Experimente/2021-Imagery/LogFiles/Imagery","7004","w","24","right100.0","Threshold: 1.425",1,"imagery","left","yaw",12,-1.425,1.425,4.6013108253952,"left",2031,1,"CR"
"/home/kwm/julia/Experimente/2021-Imagery/LogFiles/Imagery","7004","w","24","right100.0","Threshold: 1.425",1,"imagery","left","yaw",13,-1.27499995231628,1.27499995231628,5.33193351648594,"left",2480,1,"CR"
"/home/kwm/julia/Experimente/2021-Imagery/LogFiles/Imagery","7004","w","24","right100.0","Threshold: 1.425",1,"imagery","left","yaw",14,1.425,1.425,5.219657124422,"right",1813,1,"HIT"
"/home/kwm/julia/Experimente/2021-Imagery/LogFiles/Imagery","7004","w","24","right100.0","Threshold: 1.425",1,"imagery","left","yaw",15,1.37499995231628,1.37499995231628,4.98162077700344,"right",1088,1,"HIT"
"/home/kwm/julia/Experimente/2021-Imagery/LogFiles/Imagery","7004","w","24","right100.0","Threshold: 1.425",1,"imagery","left","yaw",16,1.47499995231628,1.47499995231628,5.63760593262995,"right",3414,1,"HIT"
"/home/kwm/julia/Experimente/2021-Imagery/LogFiles/Imagery","7004","w","24","right100.0","Threshold: 1.425",1,"imagery","left","yaw",17,1.47499995231628,1.47499995231628,5.03488671373961,"right",1475,1,"HIT"
"/home/kwm/julia/Experimente/2021-Imagery/LogFiles/Imagery","7004","w","24","right100.0","Threshold: 1.425",1,"imagery","left","yaw",18,-1.32499995231628,1.32499995231628,4.82107520494743,"left",2925,1,"CR"
"/home/kwm/julia/Experimente/2021-Imagery/LogFiles/Imagery","7004","w","24","right100.0","Threshold: 1.425",1,"imagery","left","yaw",19,-1.32499995231628,1.32499995231628,5.14873961066158,"left",1360,1,"CR"
"/home/kwm/julia/Experimente/2021-Imagery/LogFiles/Imagery","7004","w","24","right100.0","Threshold: 1.425",1,"imagery","left","yaw",20,1.425,1.425,5.90199514705433,"right",1567,1,"HIT"
"/home/kwm/julia/Experimente/2021-Imagery/LogFiles/Imagery","7004","w","24","right100.0","Threshold: 1.425",1,"imagery","left","yaw",21,-1.27499995231628,1.27499995231628,5.26487596158698,"left",1249,1,"CR"
"/home/kwm/julia/Experimente/2021-Imagery/LogFiles/Imagery","7004","w","24","right100.0","Threshold: 1.425",1,"imagery","left","yaw",22,1.27499995231628,1.27499995231628,4.96403726872331,"right",1180,1,"HIT"
"/home/kwm/julia/Experimente/2021-Imagery/LogFiles/Imagery","7004","w","24","right100.0","Threshold: 1.425",1,"imagery","left","yaw",23,-1.37499995231628,1.37499995231628,4.87421453309404,"left",1933,1,"CR"
"/home/kwm/julia/Experimente/2021-Imagery/LogFiles/Imagery","7004","w","24","right100.0","Threshold: 1.425",1,"imagery","left","yaw",24,-1.37499995231628,1.37499995231628,5.23089494177243,"right",3699,0,"FA"
"/home/kwm/julia/Experimente/2021-Imagery/LogFiles/Imagery","7004","w","24","right100.0","Threshold: 1.425",1,"imagery","left","yaw",25,1.47499995231628,1.47499995231628,5.09033372851583,"left",2900,0,"MISS"
"/home/kwm/julia/Experimente/2021-Imagery/LogFiles/Imagery","7004","w","24","right100.0","Threshold: 1.425",1,"imagery","left","yaw",26,1.425,1.425,4.7968893769176,"right",1835,1,"HIT"
"/home/kwm/julia/Experimente/2021-Imagery/LogFiles/Imagery","7004","w","24","right100.0","Threshold: 1.425",1,"imagery","left","yaw",27,1.32499995231628,1.32499995231628,4.89718880470311,"right",1750,1,"HIT"
"/home/kwm/julia/Experimente/2021-Imagery/LogFiles/Imagery","7004","w","24","right100.0","Threshold: 1.425",1,"imagery","left","yaw",28,1.32499995231628,1.32499995231628,5.09434870766456,"right",7939,1,"HIT"
"/home/kwm/julia/Experimente/2021-Imagery/LogFiles/Imagery","7004","w","24","right100.0","Threshold: 1.425",1,"imagery","left","yaw",29,1.32499995231628,1.32499995231628,5.01679140487481,"right",1372,1,"HIT"
"/home/kwm/julia/Experimente/2021-Imagery/LogFiles/Imagery","7004","w","24","right100.0","Threshold: 1.425",1,"imagery","left","yaw",30,-1.27499995231628,1.27499995231628,5.27084160455591,"left",1206,1,"CR"
"/home/kwm/julia/Experimente/2021-Imagery/LogFiles/Imagery","7004","w","24","right100.0","Threshold: 1.425",1,"imagery","left","yaw",31,-1.37499995231628,1.37499995231628,5.14019718968963,"left",1246,1,"CR"
"/home/kwm/julia/Experimente/2021-Imagery/LogFiles/Imagery","7004","w","24","right100.0","Threshold: 1.425",1,"imagery","left","yaw",32,1.425,1.425,4.52726591220432,"right",6779,1,"HIT"
"/home/kwm/julia/Experimente/2021-Imagery/LogFiles/Imagery","7004","w","24","right100.0","Threshold: 1.425",1,"imagery","left","yaw",33,1.37499995231628,1.37499995231628,4.99910221505933,"right",850,1,"HIT"
"/home/kwm/julia/Experimente/2021-Imagery/LogFiles/Imagery","7004","w","24","right100.0","Threshold: 1.425",1,"imagery","left","yaw",34,1.425,1.425,5.75210810842666,"right",1366,1,"HIT"
"/home/kwm/julia/Experimente/2021-Imagery/LogFiles/Imagery","7004","w","24","right100.0","Threshold: 1.425",1,"imagery","left","yaw",35,-1.47499995231628,1.47499995231628,4.72784481951527,"left",878,1,"CR"
"/home/kwm/julia/Experimente/2021-Imagery/LogFiles/Imagery","7004","w","24","right100.0","Threshold: 1.425",1,"imagery","left","yaw",36,-1.37499995231628,1.37499995231628,4.81323220215764,"right",1935,0,"FA"
"/home/kwm/julia/Experimente/2021-Imagery/LogFiles/Imagery","7004","w","24","right100.0","Threshold: 1.425",1,"imagery","left","yaw",37,1.37499995231628,1.37499995231628,4.80355172737942,"right",1097,1,"HIT"
"/home/kwm/julia/Experimente/2021-Imagery/LogFiles/Imagery","7004","w","24","right100.0","Threshold: 1.425",1,"imagery","left","yaw",38,-1.37499995231628,1.37499995231628,5.18927520100076,"left",1336,1,"CR"
"/home/kwm/julia/Experimente/2021-Imagery/LogFiles/Imagery","7004","w","24","right100.0","Threshold: 1.425",1,"imagery","left","yaw",39,1.37499995231628,1.37499995231628,5.22833152810666,"right",1426,1,"HIT"
"/home/kwm/julia/Experimente/2021-Imagery/LogFiles/Imagery","7004","w","24","right100.0","Threshold: 1.425",1,"imagery","left","yaw",40,-1.47499995231628,1.47499995231628,4.94581532432253,"left",2545,1,"CR"
"/home/kwm/julia/Experimente/2021-Imagery/LogFiles/Imagery","7004","w","24","right100.0","Threshold: 1.425",1,"imagery","left","yaw",41,1.37499995231628,1.37499995231628,5.05521687354332,"right",3965,1,"HIT"
"/home/kwm/julia/Experimente/2021-Imagery/LogFiles/Imagery","7004","w","24","right100.0","Threshold: 1.425",1,"imagery","left","yaw",42,-1.32499995231628,1.32499995231628,5.29437069268642,"left",2119,1,"CR"
"/home/kwm/julia/Experimente/2021-Imagery/LogFiles/Imagery","7004","w","24","right100.0","Threshold: 1.425",1,"imagery","left","yaw",43,1.47499995231628,1.47499995231628,5.61883303146513,"right",1266,1,"HIT"
"/home/kwm/julia/Experimente/2021-Imagery/LogFiles/Imagery","7004","w","24","right100.0","Threshold: 1.425",1,"imagery","left","yaw",44,1.32499995231628,1.32499995231628,4.92525938606018,"right",1548,1,"HIT"
"/home/kwm/julia/Experimente/2021-Imagery/LogFiles/Imagery","7004","w","24","right100.0","Threshold: 1.425",1,"imagery","left","yaw",45,1.425,1.425,5.19591517257136,"right",1264,1,"HIT"
"/home/kwm/julia/Experimente/2021-Imagery/LogFiles/Imagery","7004","w","24","right100.0","Threshold: 1.425",1,"imagery","left","yaw",46,-1.425,1.425,4.87291734134253,"right",1408,0,"FA"
"/home/kwm/julia/Experimente/2021-Imagery/LogFiles/Imagery","7004","w","24","right100.0","Threshold: 1.425",1,"imagery","left","yaw",47,-1.27499995231628,1.27499995231628,4.99802922739252,"right",2264,0,"FA"
"/home/kwm/julia/Experimente/2021-Imagery/LogFiles/Imagery","7004","w","24","right100.0","Threshold: 1.425",1,"imagery","left","yaw",48,-1.32499995231628,1.32499995231628,4.85122113825581,"right",1747,0,"FA"
"/home/kwm/julia/Experimente/2021-Imagery/LogFiles/Imagery","7004","w","24","right100.0","Threshold: 1.425",1,"imagery","left","yaw",49,1.425,1.425,4.76951308489326,"right",2825,1,"HIT"
"/home/kwm/julia/Experimente/2021-Imagery/LogFiles/Imagery","7004","w","24","right100.0","Threshold: 1.425",1,"imagery","left","yaw",50,-1.425,1.425,4.70002528818626,"left",6836,1,"CR"
"/home/kwm/julia/Experimente/2021-Imagery/LogFiles/Imagery","7004","w","24","right100.0","Threshold: 1.425",1,"imagery","left","yaw",51,-1.27499995231628,1.27499995231628,4.79833313157984,"left",2015,1,"CR"
"/home/kwm/julia/Experimente/2021-Imagery/LogFiles/Imagery","7004","w","24","right100.0","Threshold: 1.425",1,"imagery","left","yaw",52,-1.32499995231628,1.32499995231628,5.35303272062981,"left",530,1,"CR"
"/home/kwm/julia/Experimente/2021-Imagery/LogFiles/Imagery","7004","w","24","right100.0","Threshold: 1.425",1,"imagery","left","yaw",53,-1.425,1.425,4.72807684242936,"left",1248,1,"CR"
"/home/kwm/julia/Experimente/2021-Imagery/LogFiles/Imagery","7004","w","24","right100.0","Threshold: 1.425",1,"imagery","left","yaw",54,1.27499995231628,1.27499995231628,4.75691667190978,"right",1431,1,"HIT"
"/home/kwm/julia/Experimente/2021-Imagery/LogFiles/Imagery","7004","w","24","right100.0","Threshold: 1.425",1,"imagery","left","yaw",55,-1.425,1.425,5.14881402979357,"left",1371,1,"CR"
"/home/kwm/julia/Experimente/2021-Imagery/LogFiles/Imagery","7004","w","24","right100.0","Threshold: 1.425",1,"imagery","left","yaw",56,1.37499995231628,1.37499995231628,4.32036645422438,"right",1319,1,"HIT"
"/home/kwm/julia/Experimente/2021-Imagery/LogFiles/Imagery","7004","w","24","right100.0","Threshold: 1.425",1,"imagery","left","yaw",57,-1.47499995231628,1.47499995231628,4.81339382950261,"left",1113,1,"CR"
"/home/kwm/julia/Experimente/2021-Imagery/LogFiles/Imagery","7004","w","24","right100.0","Threshold: 1.425",1,"imagery","left","yaw",58,1.32499995231628,1.32499995231628,5.16352735631876,"right",982,1,"HIT"
"/home/kwm/julia/Experimente/2021-Imagery/LogFiles/Imagery","7004","w","24","right100.0","Threshold: 1.425",1,"imagery","left","yaw",59,-1.47499995231628,1.47499995231628,4.79825223359267,"left",901,1,"CR"
"/home/kwm/julia/Experimente/2021-Imagery/LogFiles/Imagery","7004","w","24","right100.0","Threshold: 1.425",1,"imagery","left","yaw",60,-1.37499995231628,1.37499995231628,5.67027922838979,"left",2268,1,"CR"
"/home/kwm/julia/Experimente/2021-Imagery/LogFiles/Imagery","7004","w","24","right100.0","Threshold: 1.425",1,"imagery","left","yaw",61,1.32499995231628,1.32499995231628,4.91523439949162,"right",1231,1,"HIT"
"/home/kwm/julia/Experimente/2021-Imagery/LogFiles/Imagery","7004","w","24","right100.0","Threshold: 1.425",1,"imagery","left","yaw",62,1.32499995231628,1.32499995231628,5.41510128785544,"right",1026,1,"HIT"
"/home/kwm/julia/Experimente/2021-Imagery/LogFiles/Imagery","7004","w","24","right100.0","Threshold: 1.425",1,"imagery","left","yaw",63,-1.27499995231628,1.27499995231628,4.99423909968841,"left",982,1,"CR"
"/home/kwm/julia/Experimente/2021-Imagery/LogFiles/Imagery","7004","w","24","right100.0","Threshold: 1.425",1,"imagery","left","yaw",64,1.32499995231628,1.32499995231628,5.00782935251038,"right",1523,1,"HIT"
"/home/kwm/julia/Experimente/2021-Imagery/LogFiles/Imagery","7004","w","24","right100.0","Threshold: 1.425",1,"imagery","left","yaw",65,-1.47499995231628,1.47499995231628,5.09979235402386,"left",903,1,"CR"
"/home/kwm/julia/Experimente/2021-Imagery/LogFiles/Imagery","7004","w","24","right100.0","Threshold: 1.425",1,"imagery","left","yaw",66,1.425,1.425,5.02232856376607,"right",1631,1,"HIT"
"/home/kwm/julia/Experimente/2021-Imagery/LogFiles/Imagery","7004","w","24","right100.0","Threshold: 1.425",1,"imagery","left","yaw",67,1.425,1.425,5.0732475415141,"right",1501,1,"HIT"
"/home/kwm/julia/Experimente/2021-Imagery/LogFiles/Imagery","7004","w","24","right100.0","Threshold: 1.425",1,"imagery","left","yaw",68,-1.27499995231628,1.27499995231628,5.08515330152963,"left",925,1,"CR"
"/home/kwm/julia/Experimente/2021-Imagery/LogFiles/Imagery","7004","w","24","right100.0","Threshold: 1.425",1,"imagery","left","yaw",69,-1.425,1.425,5.00865896600059,"left",1034,1,"CR"
"/home/kwm/julia/Experimente/2021-Imagery/LogFiles/Imagery","7004","w","24","right100.0","Threshold: 1.425",1,"imagery","left","yaw",70,-1.425,1.425,5.0111968913529,"left",1299,1,"CR"
"/home/kwm/julia/Experimente/2021-Imagery/LogFiles/Imagery","7004","w","24","right100.0","Threshold: 1.425",1,"imagery","left","yaw",71,-1.37499995231628,1.37499995231628,4.99378027237162,"left",967,1,"CR"
"/home/kwm/julia/Experimente/2021-Imagery/LogFiles/Imagery","7004","w","24","right100.0","Threshold: 1.425",1,"imagery","left","yaw",72,-1.37499995231628,1.37499995231628,5.34059430338145,"left",1496,1,"CR"
"/home/kwm/julia/Experimente/2021-Imagery/LogFiles/Imagery","7004","w","24","right100.0","Threshold: 1.425",1,"imagery","left","yaw",73,1.47499995231628,1.47499995231628,4.93893363535191,"right",1112,1,"HIT"
"/home/kwm/julia/Experimente/2021-Imagery/LogFiles/Imagery","7004","w","24","right100.0","Threshold: 1.425",1,"imagery","left","yaw",74,1.47499995231628,1.47499995231628,4.77253823476953,"right",1855,1,"HIT"
"/home/kwm/julia/Experimente/2021-Imagery/LogFiles/Imagery","7004","w","24","right100.0","Threshold: 1.425",1,"imagery","left","yaw",75,-1.32499995231628,1.32499995231628,5.11346125213599,"left",1687,1,"CR"
"/home/kwm/julia/Experimente/2021-Imagery/LogFiles/Imagery","7004","w","24","right100.0","Threshold: 1.425",1,"imagery","left","yaw",76,-1.32499995231628,1.32499995231628,5.62308093030696,"left",1295,1,"CR"
