"exp","id","sex","age","handedness","threshold","block","condition","instruction","axis","trial","motion_duration","motion","absmotion","iti","response","rt","accuracy","answer"
"/home/kwm/julia/Experimente/2021-Imagery/LogFiles/Imagery","7005","w","23","right100.0","Threshold: 0.675",1,"imagery","left","yaw",1,1,0.725000011920929,0.725000011920929,5.26496521444041,"right",1469,1,"HIT"
"/home/kwm/julia/Experimente/2021-Imagery/LogFiles/Imagery","7005","w","23","right100.0","Threshold: 0.675",1,"imagery","left","yaw",2,1,0.625000011920929,0.625000011920929,4.69925821942064,"right",1599,1,"HIT"
"/home/kwm/julia/Experimente/2021-Imagery/LogFiles/Imagery","7005","w","23","right100.0","Threshold: 0.675",1,"imagery","left","yaw",3,1,-0.575000011920929,0.575000011920929,4.82252074295219,"left",3674,1,"CR"
"/home/kwm/julia/Experimente/2021-Imagery/LogFiles/Imagery","7005","w","23","right100.0","Threshold: 0.675",1,"imagery","left","yaw",4,1,-0.525000011920929,0.525000011920929,4.94809821352209,"left",2052,1,"CR"
"/home/kwm/julia/Experimente/2021-Imagery/LogFiles/Imagery","7005","w","23","right100.0","Threshold: 0.675",1,"imagery","left","yaw",5,1,0.725000011920929,0.725000011920929,4.97579361504254,"right",1714,1,"HIT"
"/home/kwm/julia/Experimente/2021-Imagery/LogFiles/Imagery","7005","w","23","right100.0","Threshold: 0.675",1,"imagery","left","yaw",6,1,-0.525000011920929,0.525000011920929,4.46261871608872,"right",4221,0,"FA"
"/home/kwm/julia/Experimente/2021-Imagery/LogFiles/Imagery","7005","w","23","right100.0","Threshold: 0.675",1,"imagery","left","yaw",7,1,0.525000011920929,0.525000011920929,4.92032586829651,"right",1653,1,"HIT"
"/home/kwm/julia/Experimente/2021-Imagery/LogFiles/Imagery","7005","w","23","right100.0","Threshold: 0.675",1,"imagery","left","yaw",8,1,0.575000011920929,0.575000011920929,4.43420248521876,"right",1445,1,"HIT"
"/home/kwm/julia/Experimente/2021-Imagery/LogFiles/Imagery","7005","w","23","right100.0","Threshold: 0.675",1,"imagery","left","yaw",9,1,0.67499995,0.67499995,4.86628375770472,"right",1801,1,"HIT"
"/home/kwm/julia/Experimente/2021-Imagery/LogFiles/Imagery","7005","w","23","right100.0","Threshold: 0.675",1,"imagery","left","yaw",10,1,-0.625000011920929,0.625000011920929,5.03600947142386,"left",1846,1,"CR"
"/home/kwm/julia/Experimente/2021-Imagery/LogFiles/Imagery","7005","w","23","right100.0","Threshold: 0.675",1,"imagery","left","yaw",11,1,0.625000011920929,0.625000011920929,5.12571401347304,"right",1232,1,"HIT"
"/home/kwm/julia/Experimente/2021-Imagery/LogFiles/Imagery","7005","w","23","right100.0","Threshold: 0.675",1,"imagery","left","yaw",12,1,-0.67499995,0.67499995,5.35245092090736,"left",1394,1,"CR"
"/home/kwm/julia/Experimente/2021-Imagery/LogFiles/Imagery","7005","w","23","right100.0","Threshold: 0.675",1,"imagery","left","yaw",13,1,-0.67499995,0.67499995,5.5751786781282,"left",1365,1,"CR"
"/home/kwm/julia/Experimente/2021-Imagery/LogFiles/Imagery","7005","w","23","right100.0","Threshold: 0.675",1,"imagery","left","yaw",14,1,-0.575000011920929,0.575000011920929,4.33576433833857,"left",1668,1,"CR"
"/home/kwm/julia/Experimente/2021-Imagery/LogFiles/Imagery","7005","w","23","right100.0","Threshold: 0.675",1,"imagery","left","yaw",15,1,0.525000011920929,0.525000011920929,5.07670985456625,"right",1422,1,"HIT"
"/home/kwm/julia/Experimente/2021-Imagery/LogFiles/Imagery","7005","w","23","right100.0","Threshold: 0.675",1,"imagery","left","yaw",16,1,0.625000011920929,0.625000011920929,5.07813308125264,"right",3301,1,"HIT"
"/home/kwm/julia/Experimente/2021-Imagery/LogFiles/Imagery","7005","w","23","right100.0","Threshold: 0.675",1,"imagery","left","yaw",17,1,0.625000011920929,0.625000011920929,4.90612429971335,"right",1609,1,"HIT"
"/home/kwm/julia/Experimente/2021-Imagery/LogFiles/Imagery","7005","w","23","right100.0","Threshold: 0.675",1,"imagery","left","yaw",18,1,0.67499995,0.67499995,5.01014911503945,"right",1214,1,"HIT"
"/home/kwm/julia/Experimente/2021-Imagery/LogFiles/Imagery","7005","w","23","right100.0","Threshold: 0.675",1,"imagery","left","yaw",19,1,0.525000011920929,0.525000011920929,5.08652286748735,"right",1428,1,"HIT"
"/home/kwm/julia/Experimente/2021-Imagery/LogFiles/Imagery","7005","w","23","right100.0","Threshold: 0.675",1,"imagery","left","yaw",20,1,-0.575000011920929,0.575000011920929,5.20786138501365,"left",1389,1,"CR"
"/home/kwm/julia/Experimente/2021-Imagery/LogFiles/Imagery","7005","w","23","right100.0","Threshold: 0.675",1,"imagery","left","yaw",21,1,-0.67499995,0.67499995,5.06853778829131,"left",1208,1,"CR"
"/home/kwm/julia/Experimente/2021-Imagery/LogFiles/Imagery","7005","w","23","right100.0","Threshold: 0.675",1,"imagery","left","yaw",22,1,0.525000011920929,0.525000011920929,5.61570047534926,"right",1401,1,"HIT"
"/home/kwm/julia/Experimente/2021-Imagery/LogFiles/Imagery","7005","w","23","right100.0","Threshold: 0.675",1,"imagery","left","yaw",23,1,-0.525000011920929,0.525000011920929,5.07754899877122,"left",2103,1,"CR"
"/home/kwm/julia/Experimente/2021-Imagery/LogFiles/Imagery","7005","w","23","right100.0","Threshold: 0.675",1,"imagery","left","yaw",24,1,0.525000011920929,0.525000011920929,4.51892183403365,"right",1308,1,"HIT"
"/home/kwm/julia/Experimente/2021-Imagery/LogFiles/Imagery","7005","w","23","right100.0","Threshold: 0.675",1,"imagery","left","yaw",25,1,0.67499995,0.67499995,5.19454552594544,"right",1395,1,"HIT"
"/home/kwm/julia/Experimente/2021-Imagery/LogFiles/Imagery","7005","w","23","right100.0","Threshold: 0.675",1,"imagery","left","yaw",26,1,-0.575000011920929,0.575000011920929,4.96462070625942,"left",1670,1,"CR"
"/home/kwm/julia/Experimente/2021-Imagery/LogFiles/Imagery","7005","w","23","right100.0","Threshold: 0.675",1,"imagery","left","yaw",27,1,0.575000011920929,0.575000011920929,4.76136574761806,"right",1509,1,"HIT"
"/home/kwm/julia/Experimente/2021-Imagery/LogFiles/Imagery","7005","w","23","right100.0","Threshold: 0.675",1,"imagery","left","yaw",28,1,0.67499995,0.67499995,4.58334137083572,"right",1558,1,"HIT"
"/home/kwm/julia/Experimente/2021-Imagery/LogFiles/Imagery","7005","w","23","right100.0","Threshold: 0.675",1,"imagery","left","yaw",29,1,0.575000011920929,0.575000011920929,4.71222150315718,"right",3879,1,"HIT"
"/home/kwm/julia/Experimente/2021-Imagery/LogFiles/Imagery","7005","w","23","right100.0","Threshold: 0.675",1,"imagery","left","yaw",30,1,0.725000011920929,0.725000011920929,5.19807799183828,"right",1378,1,"HIT"
"/home/kwm/julia/Experimente/2021-Imagery/LogFiles/Imagery","7005","w","23","right100.0","Threshold: 0.675",1,"imagery","left","yaw",31,1,-0.625000011920929,0.625000011920929,4.98217720142368,"left",1420,1,"CR"
"/home/kwm/julia/Experimente/2021-Imagery/LogFiles/Imagery","7005","w","23","right100.0","Threshold: 0.675",1,"imagery","left","yaw",32,1,-0.725000011920929,0.725000011920929,5.348177653682,"left",1419,1,"CR"
"/home/kwm/julia/Experimente/2021-Imagery/LogFiles/Imagery","7005","w","23","right100.0","Threshold: 0.675",1,"imagery","left","yaw",33,1,-0.67499995,0.67499995,4.70639150617074,"left",1467,1,"CR"
"/home/kwm/julia/Experimente/2021-Imagery/LogFiles/Imagery","7005","w","23","right100.0","Threshold: 0.675",1,"imagery","left","yaw",34,1,0.625000011920929,0.625000011920929,5.07090482582642,"right",2331,1,"HIT"
"/home/kwm/julia/Experimente/2021-Imagery/LogFiles/Imagery","7005","w","23","right100.0","Threshold: 0.675",1,"imagery","left","yaw",35,1,-0.625000011920929,0.625000011920929,4.7696672271359,"left",1561,1,"CR"
"/home/kwm/julia/Experimente/2021-Imagery/LogFiles/Imagery","7005","w","23","right100.0","Threshold: 0.675",1,"imagery","left","yaw",36,1,-0.575000011920929,0.575000011920929,4.95254531059726,"left",2331,1,"CR"
"/home/kwm/julia/Experimente/2021-Imagery/LogFiles/Imagery","7005","w","23","right100.0","Threshold: 0.675",1,"imagery","left","yaw",37,1,-0.725000011920929,0.725000011920929,5.14587169709625,"left",1326,1,"CR"
"/home/kwm/julia/Experimente/2021-Imagery/LogFiles/Imagery","7005","w","23","right100.0","Threshold: 0.675",1,"imagery","left","yaw",38,1,-0.725000011920929,0.725000011920929,4.90517488872792,"left",1437,1,"CR"
"/home/kwm/julia/Experimente/2021-Imagery/LogFiles/Imagery","7005","w","23","right100.0","Threshold: 0.675",1,"imagery","left","yaw",39,1,0.625000011920929,0.625000011920929,4.9795817869604,"left",4368,0,"MISS"
"/home/kwm/julia/Experimente/2021-Imagery/LogFiles/Imagery","7005","w","23","right100.0","Threshold: 0.675",1,"imagery","left","yaw",40,1,-0.625000011920929,0.625000011920929,4.47384632633188,"left",1672,1,"CR"
"/home/kwm/julia/Experimente/2021-Imagery/LogFiles/Imagery","7005","w","23","right100.0","Threshold: 0.675",1,"imagery","left","yaw",41,1,0.575000011920929,0.575000011920929,5.35167103689374,"right",1333,1,"HIT"
"/home/kwm/julia/Experimente/2021-Imagery/LogFiles/Imagery","7005","w","23","right100.0","Threshold: 0.675",1,"imagery","left","yaw",42,1,-0.725000011920929,0.725000011920929,5.13085352053907,"left",1434,1,"CR"
"/home/kwm/julia/Experimente/2021-Imagery/LogFiles/Imagery","7005","w","23","right100.0","Threshold: 0.675",1,"imagery","left","yaw",43,1,0.725000011920929,0.725000011920929,4.98760316889878,"right",1263,1,"HIT"
"/home/kwm/julia/Experimente/2021-Imagery/LogFiles/Imagery","7005","w","23","right100.0","Threshold: 0.675",1,"imagery","left","yaw",44,1,-0.525000011920929,0.525000011920929,4.97383783406358,"left",1477,1,"CR"
"/home/kwm/julia/Experimente/2021-Imagery/LogFiles/Imagery","7005","w","23","right100.0","Threshold: 0.675",1,"imagery","left","yaw",45,1,-0.525000011920929,0.525000011920929,5.54139774952579,"left",3435,1,"CR"
"/home/kwm/julia/Experimente/2021-Imagery/LogFiles/Imagery","7005","w","23","right100.0","Threshold: 0.675",1,"imagery","left","yaw",46,1,0.67499995,0.67499995,4.92714496090063,"right",1582,1,"HIT"
"/home/kwm/julia/Experimente/2021-Imagery/LogFiles/Imagery","7005","w","23","right100.0","Threshold: 0.675",1,"imagery","left","yaw",47,1,-0.625000011920929,0.625000011920929,4.91443199250506,"left",3771,1,"CR"
"/home/kwm/julia/Experimente/2021-Imagery/LogFiles/Imagery","7005","w","23","right100.0","Threshold: 0.675",1,"imagery","left","yaw",48,1,0.525000011920929,0.525000011920929,4.77569689035305,"right",1459,1,"HIT"
"/home/kwm/julia/Experimente/2021-Imagery/LogFiles/Imagery","7005","w","23","right100.0","Threshold: 0.675",1,"imagery","left","yaw",49,1,0.625000011920929,0.625000011920929,5.11358981329083,"right",1193,1,"HIT"
"/home/kwm/julia/Experimente/2021-Imagery/LogFiles/Imagery","7005","w","23","right100.0","Threshold: 0.675",1,"imagery","left","yaw",50,1,0.67499995,0.67499995,4.83520085167792,"right",1095,1,"HIT"
"/home/kwm/julia/Experimente/2021-Imagery/LogFiles/Imagery","7005","w","23","right100.0","Threshold: 0.675",1,"imagery","left","yaw",51,1,-0.725000011920929,0.725000011920929,5.02519769340142,"left",1443,1,"CR"
"/home/kwm/julia/Experimente/2021-Imagery/LogFiles/Imagery","7005","w","23","right100.0","Threshold: 0.675",1,"imagery","left","yaw",52,1,-0.525000011920929,0.525000011920929,4.90543265356114,"left",1347,1,"CR"
"/home/kwm/julia/Experimente/2021-Imagery/LogFiles/Imagery","7005","w","23","right100.0","Threshold: 0.675",1,"imagery","left","yaw",53,1,-0.67499995,0.67499995,5.0863889962881,"left",1469,1,"CR"
"/home/kwm/julia/Experimente/2021-Imagery/LogFiles/Imagery","7005","w","23","right100.0","Threshold: 0.675",1,"imagery","left","yaw",54,1,0.67499995,0.67499995,5.50788403388546,"right",1358,1,"HIT"
"/home/kwm/julia/Experimente/2021-Imagery/LogFiles/Imagery","7005","w","23","right100.0","Threshold: 0.675",1,"imagery","left","yaw",55,1,0.725000011920929,0.725000011920929,5.41786323469237,"right",1413,1,"HIT"
"/home/kwm/julia/Experimente/2021-Imagery/LogFiles/Imagery","7005","w","23","right100.0","Threshold: 0.675",1,"imagery","left","yaw",56,1,-0.67499995,0.67499995,5.35528440462072,"left",1315,1,"CR"
"/home/kwm/julia/Experimente/2021-Imagery/LogFiles/Imagery","7005","w","23","right100.0","Threshold: 0.675",1,"imagery","left","yaw",57,1,-0.625000011920929,0.625000011920929,4.62534515742663,"left",1829,1,"CR"
"/home/kwm/julia/Experimente/2021-Imagery/LogFiles/Imagery","7005","w","23","right100.0","Threshold: 0.675",1,"imagery","left","yaw",58,1,-0.725000011920929,0.725000011920929,4.4808153123677,"left",1228,1,"CR"
"/home/kwm/julia/Experimente/2021-Imagery/LogFiles/Imagery","7005","w","23","right100.0","Threshold: 0.675",1,"imagery","left","yaw",59,1,0.67499995,0.67499995,5.14423608846383,"right",1302,1,"HIT"
"/home/kwm/julia/Experimente/2021-Imagery/LogFiles/Imagery","7005","w","23","right100.0","Threshold: 0.675",1,"imagery","left","yaw",60,1,-0.575000011920929,0.575000011920929,5.37207138077611,"left",1435,1,"CR"
"/home/kwm/julia/Experimente/2021-Imagery/LogFiles/Imagery","7005","w","23","right100.0","Threshold: 0.675",1,"imagery","left","yaw",61,1,-0.725000011920929,0.725000011920929,4.61793241031975,"left",1378,1,"CR"
"/home/kwm/julia/Experimente/2021-Imagery/LogFiles/Imagery","7005","w","23","right100.0","Threshold: 0.675",1,"imagery","left","yaw",62,1,0.575000011920929,0.575000011920929,4.57097889415193,"right",1277,1,"HIT"
"/home/kwm/julia/Experimente/2021-Imagery/LogFiles/Imagery","7005","w","23","right100.0","Threshold: 0.675",1,"imagery","left","yaw",63,1,0.575000011920929,0.575000011920929,5.34319700715328,"right",1164,1,"HIT"
"/home/kwm/julia/Experimente/2021-Imagery/LogFiles/Imagery","7005","w","23","right100.0","Threshold: 0.675",1,"imagery","left","yaw",64,1,-0.725000011920929,0.725000011920929,5.02087525841276,"left",1305,1,"CR"
"/home/kwm/julia/Experimente/2021-Imagery/LogFiles/Imagery","7005","w","23","right100.0","Threshold: 0.675",1,"imagery","left","yaw",65,1,0.725000011920929,0.725000011920929,5.08668334710933,"right",1180,1,"HIT"
"/home/kwm/julia/Experimente/2021-Imagery/LogFiles/Imagery","7005","w","23","right100.0","Threshold: 0.675",1,"imagery","left","yaw",66,1,0.67499995,0.67499995,4.87918084145234,"right",1173,1,"HIT"
"/home/kwm/julia/Experimente/2021-Imagery/LogFiles/Imagery","7005","w","23","right100.0","Threshold: 0.675",1,"imagery","left","yaw",67,1,-0.625000011920929,0.625000011920929,5.05531446322169,"left",1246,1,"CR"
"/home/kwm/julia/Experimente/2021-Imagery/LogFiles/Imagery","7005","w","23","right100.0","Threshold: 0.675",1,"imagery","left","yaw",68,1,-0.525000011920929,0.525000011920929,4.94568244205914,"left",1627,1,"CR"
"/home/kwm/julia/Experimente/2021-Imagery/LogFiles/Imagery","7005","w","23","right100.0","Threshold: 0.675",1,"imagery","left","yaw",69,1,-0.575000011920929,0.575000011920929,5.01028453186544,"left",1154,1,"CR"
"/home/kwm/julia/Experimente/2021-Imagery/LogFiles/Imagery","7005","w","23","right100.0","Threshold: 0.675",1,"imagery","left","yaw",70,1,-0.525000011920929,0.525000011920929,4.97448443655494,"left",1199,1,"CR"
"/home/kwm/julia/Experimente/2021-Imagery/LogFiles/Imagery","7005","w","23","right100.0","Threshold: 0.675",1,"imagery","left","yaw",71,1,-0.67499995,0.67499995,5.19913125796934,"left",1358,1,"CR"
"/home/kwm/julia/Experimente/2021-Imagery/LogFiles/Imagery","7005","w","23","right100.0","Threshold: 0.675",1,"imagery","left","yaw",72,1,0.575000011920929,0.575000011920929,5.03157440591484,"right",4330,1,"HIT"
"/home/kwm/julia/Experimente/2021-Imagery/LogFiles/Imagery","7005","w","23","right100.0","Threshold: 0.675",1,"imagery","left","yaw",73,1,-0.525000011920929,0.525000011920929,5.44214859864335,"left",4445,1,"CR"
"/home/kwm/julia/Experimente/2021-Imagery/LogFiles/Imagery","7005","w","23","right100.0","Threshold: 0.675",1,"imagery","left","yaw",74,1,0.575000011920929,0.575000011920929,4.80261614432707,"right",1219,1,"HIT"
"/home/kwm/julia/Experimente/2021-Imagery/LogFiles/Imagery","7005","w","23","right100.0","Threshold: 0.675",1,"imagery","left","yaw",75,1,-0.67499995,0.67499995,5.08156973589206,"left",1588,1,"CR"
"/home/kwm/julia/Experimente/2021-Imagery/LogFiles/Imagery","7005","w","23","right100.0","Threshold: 0.675",1,"imagery","left","yaw",76,1,-0.525000011920929,0.525000011920929,4.97061604605889,"left",4932,1,"CR"
"/home/kwm/julia/Experimente/2021-Imagery/LogFiles/Imagery","7005","w","23","right100.0","Threshold: 0.675",1,"imagery","left","yaw",77,1,0.625000011920929,0.625000011920929,4.95047280919657,"right",1171,1,"HIT"
"/home/kwm/julia/Experimente/2021-Imagery/LogFiles/Imagery","7005","w","23","right100.0","Threshold: 0.675",1,"imagery","left","yaw",78,1,-0.67499995,0.67499995,4.05769760628946,"left",1380,1,"CR"
"/home/kwm/julia/Experimente/2021-Imagery/LogFiles/Imagery","7005","w","23","right100.0","Threshold: 0.675",1,"imagery","left","yaw",79,1,0.525000011920929,0.525000011920929,5.31922744978347,"right",1335,1,"HIT"
"/home/kwm/julia/Experimente/2021-Imagery/LogFiles/Imagery","7005","w","23","right100.0","Threshold: 0.675",1,"imagery","left","yaw",80,1,-0.575000011920929,0.575000011920929,5.42329843255596,"left",4233,1,"CR"
"/home/kwm/julia/Experimente/2021-Imagery/LogFiles/Imagery","7005","w","23","right100.0","Threshold: 0.675",1,"imagery","left","yaw",81,1,0.625000011920929,0.625000011920929,4.92367749087613,"right",1633,1,"HIT"
"/home/kwm/julia/Experimente/2021-Imagery/LogFiles/Imagery","7005","w","23","right100.0","Threshold: 0.675",1,"imagery","left","yaw",82,1,0.625000011920929,0.625000011920929,5.70245566002293,"right",1226,1,"HIT"
"/home/kwm/julia/Experimente/2021-Imagery/LogFiles/Imagery","7005","w","23","right100.0","Threshold: 0.675",1,"imagery","left","yaw",83,1,0.525000011920929,0.525000011920929,5.28148259752404,"right",1594,1,"HIT"
"/home/kwm/julia/Experimente/2021-Imagery/LogFiles/Imagery","7005","w","23","right100.0","Threshold: 0.675",1,"imagery","left","yaw",84,1,-0.625000011920929,0.625000011920929,4.36874395405101,"right",3058,0,"FA"
"/home/kwm/julia/Experimente/2021-Imagery/LogFiles/Imagery","7005","w","23","right100.0","Threshold: 0.675",1,"imagery","left","yaw",85,1,-0.625000011920929,0.625000011920929,4.64038975792392,"left",1303,1,"CR"
"/home/kwm/julia/Experimente/2021-Imagery/LogFiles/Imagery","7005","w","23","right100.0","Threshold: 0.675",1,"imagery","left","yaw",86,1,-0.725000011920929,0.725000011920929,4.99478811328963,"left",1587,1,"CR"
"/home/kwm/julia/Experimente/2021-Imagery/LogFiles/Imagery","7005","w","23","right100.0","Threshold: 0.675",1,"imagery","left","yaw",87,1,0.575000011920929,0.575000011920929,4.86959626342495,"right",1191,1,"HIT"
"/home/kwm/julia/Experimente/2021-Imagery/LogFiles/Imagery","7005","w","23","right100.0","Threshold: 0.675",1,"imagery","left","yaw",88,1,0.725000011920929,0.725000011920929,4.83130868688343,"right",3340,1,"HIT"
"/home/kwm/julia/Experimente/2021-Imagery/LogFiles/Imagery","7005","w","23","right100.0","Threshold: 0.675",1,"imagery","left","yaw",89,1,0.725000011920929,0.725000011920929,5.02862422027585,"right",2460,1,"HIT"
"/home/kwm/julia/Experimente/2021-Imagery/LogFiles/Imagery","7005","w","23","right100.0","Threshold: 0.675",1,"imagery","left","yaw",90,1,0.575000011920929,0.575000011920929,4.82764769295043,"right",1404,1,"HIT"
"/home/kwm/julia/Experimente/2021-Imagery/LogFiles/Imagery","7005","w","23","right100.0","Threshold: 0.675",1,"imagery","left","yaw",91,1,0.525000011920929,0.525000011920929,4.91112540527214,"left",4624,0,"MISS"
"/home/kwm/julia/Experimente/2021-Imagery/LogFiles/Imagery","7005","w","23","right100.0","Threshold: 0.675",1,"imagery","left","yaw",92,1,-0.725000011920929,0.725000011920929,4.57465779011834,"left",1250,1,"CR"
"/home/kwm/julia/Experimente/2021-Imagery/LogFiles/Imagery","7005","w","23","right100.0","Threshold: 0.675",1,"imagery","left","yaw",93,1,-0.575000011920929,0.575000011920929,4.82747720662566,"left",1125,1,"CR"
"/home/kwm/julia/Experimente/2021-Imagery/LogFiles/Imagery","7005","w","23","right100.0","Threshold: 0.675",1,"imagery","left","yaw",94,1,-0.625000011920929,0.625000011920929,4.77825386890425,"left",1260,1,"CR"
"/home/kwm/julia/Experimente/2021-Imagery/LogFiles/Imagery","7005","w","23","right100.0","Threshold: 0.675",1,"imagery","left","yaw",95,1,-0.67499995,0.67499995,4.9457592119477,"left",1233,1,"CR"
"/home/kwm/julia/Experimente/2021-Imagery/LogFiles/Imagery","7005","w","23","right100.0","Threshold: 0.675",1,"imagery","left","yaw",96,1,0.725000011920929,0.725000011920929,4.85056195643242,"right",1250,1,"HIT"
"/home/kwm/julia/Experimente/2021-Imagery/LogFiles/Imagery","7005","w","23","right100.0","Threshold: 0.675",1,"imagery","left","yaw",97,1,0.525000011920929,0.525000011920929,4.68638156220262,"right",2002,1,"HIT"
"/home/kwm/julia/Experimente/2021-Imagery/LogFiles/Imagery","7005","w","23","right100.0","Threshold: 0.675",1,"imagery","left","yaw",98,1,0.67499995,0.67499995,4.91706744788745,"right",1176,1,"HIT"
"/home/kwm/julia/Experimente/2021-Imagery/LogFiles/Imagery","7005","w","23","right100.0","Threshold: 0.675",1,"imagery","left","yaw",99,1,-0.575000011920929,0.575000011920929,4.89815161705505,"left",2002,1,"CR"
"/home/kwm/julia/Experimente/2021-Imagery/LogFiles/Imagery","7005","w","23","right100.0","Threshold: 0.675",1,"imagery","left","yaw",100,1,0.725000011920929,0.725000011920929,4.84458246161943,"right",1323,1,"HIT"
"/home/kwm/julia/Experimente/2021-Imagery/LogFiles/Imagery","7005","w","23","right100.0","Threshold: 0.675",1,"probability","right","yaw",1,1,0.525000011920929,0.525000011920929,4.79264824746207,"right",1471,1,"HIT"
"/home/kwm/julia/Experimente/2021-Imagery/LogFiles/Imagery","7005","w","23","right100.0","Threshold: 0.675",1,"probability","right","yaw",2,1,-0.67499995,0.67499995,5.44023051534418,"right",2894,0,"FA"
"/home/kwm/julia/Experimente/2021-Imagery/LogFiles/Imagery","7005","w","23","right100.0","Threshold: 0.675",1,"probability","right","yaw",3,1,-0.625000011920929,0.625000011920929,4.95610069830971,"left",1186,1,"CR"
"/home/kwm/julia/Experimente/2021-Imagery/LogFiles/Imagery","7005","w","23","right100.0","Threshold: 0.675",1,"probability","right","yaw",4,1,0.67499995,0.67499995,4.83201458685401,"right",1398,1,"HIT"
"/home/kwm/julia/Experimente/2021-Imagery/LogFiles/Imagery","7005","w","23","right100.0","Threshold: 0.675",1,"probability","right","yaw",5,1,-0.725000011920929,0.725000011920929,4.75265244988373,"left",1275,1,"CR"
"/home/kwm/julia/Experimente/2021-Imagery/LogFiles/Imagery","7005","w","23","right100.0","Threshold: 0.675",1,"probability","right","yaw",6,1,-0.575000011920929,0.575000011920929,5.13410357084917,"left",1336,1,"CR"
"/home/kwm/julia/Experimente/2021-Imagery/LogFiles/Imagery","7005","w","23","right100.0","Threshold: 0.675",1,"probability","right","yaw",7,1,-0.575000011920929,0.575000011920929,5.02182035109059,"left",2172,1,"CR"
"/home/kwm/julia/Experimente/2021-Imagery/LogFiles/Imagery","7005","w","23","right100.0","Threshold: 0.675",1,"probability","right","yaw",8,1,0.525000011920929,0.525000011920929,5.461943845086,"right",1510,1,"HIT"
"/home/kwm/julia/Experimente/2021-Imagery/LogFiles/Imagery","7005","w","23","right100.0","Threshold: 0.675",1,"probability","right","yaw",9,1,-0.725000011920929,0.725000011920929,5.30530477292472,"left",1458,1,"CR"
"/home/kwm/julia/Experimente/2021-Imagery/LogFiles/Imagery","7005","w","23","right100.0","Threshold: 0.675",1,"probability","right","yaw",10,1,0.575000011920929,0.575000011920929,4.87220509559429,"right",1328,1,"HIT"
"/home/kwm/julia/Experimente/2021-Imagery/LogFiles/Imagery","7005","w","23","right100.0","Threshold: 0.675",1,"probability","right","yaw",11,1,0.725000011920929,0.725000011920929,5.35327787938748,"right",2617,1,"HIT"
"/home/kwm/julia/Experimente/2021-Imagery/LogFiles/Imagery","7005","w","23","right100.0","Threshold: 0.675",1,"probability","right","yaw",12,1,0.67499995,0.67499995,4.94427269959084,"right",1102,1,"HIT"
"/home/kwm/julia/Experimente/2021-Imagery/LogFiles/Imagery","7005","w","23","right100.0","Threshold: 0.675",1,"probability","right","yaw",13,1,0.67499995,0.67499995,5.4283257703892,"right",1143,1,"HIT"
"/home/kwm/julia/Experimente/2021-Imagery/LogFiles/Imagery","7005","w","23","right100.0","Threshold: 0.675",1,"probability","right","yaw",14,1,-0.575000011920929,0.575000011920929,4.73350466894144,"left",1319,1,"CR"
"/home/kwm/julia/Experimente/2021-Imagery/LogFiles/Imagery","7005","w","23","right100.0","Threshold: 0.675",1,"probability","right","yaw",15,1,-0.575000011920929,0.575000011920929,4.62931137888209,"left",1369,1,"CR"
"/home/kwm/julia/Experimente/2021-Imagery/LogFiles/Imagery","7005","w","23","right100.0","Threshold: 0.675",1,"probability","right","yaw",16,1,-0.725000011920929,0.725000011920929,4.23065218803491,"left",1834,1,"CR"
"/home/kwm/julia/Experimente/2021-Imagery/LogFiles/Imagery","7005","w","23","right100.0","Threshold: 0.675",1,"probability","right","yaw",17,1,0.625000011920929,0.625000011920929,5.06224595792467,"right",1182,1,"HIT"
"/home/kwm/julia/Experimente/2021-Imagery/LogFiles/Imagery","7005","w","23","right100.0","Threshold: 0.675",1,"probability","right","yaw",18,1,-0.525000011920929,0.525000011920929,5.71717612448611,"left",1392,1,"CR"
"/home/kwm/julia/Experimente/2021-Imagery/LogFiles/Imagery","7005","w","23","right100.0","Threshold: 0.675",1,"probability","right","yaw",19,1,0.525000011920929,0.525000011920929,5.2053754243386,"right",1138,1,"HIT"
"/home/kwm/julia/Experimente/2021-Imagery/LogFiles/Imagery","7005","w","23","right100.0","Threshold: 0.675",1,"probability","right","yaw",20,1,-0.525000011920929,0.525000011920929,4.86181995238315,"left",1501,1,"CR"
"/home/kwm/julia/Experimente/2021-Imagery/LogFiles/Imagery","7005","w","23","right100.0","Threshold: 0.675",1,"probability","right","yaw",21,1,0.725000011920929,0.725000011920929,4.90676836845476,"right",998,1,"HIT"
"/home/kwm/julia/Experimente/2021-Imagery/LogFiles/Imagery","7005","w","23","right100.0","Threshold: 0.675",1,"probability","right","yaw",22,1,-0.625000011920929,0.625000011920929,4.88965840228313,"left",2141,1,"CR"
"/home/kwm/julia/Experimente/2021-Imagery/LogFiles/Imagery","7005","w","23","right100.0","Threshold: 0.675",1,"probability","right","yaw",23,1,0.575000011920929,0.575000011920929,5.02386953478818,"right",1319,1,"HIT"
"/home/kwm/julia/Experimente/2021-Imagery/LogFiles/Imagery","7005","w","23","right100.0","Threshold: 0.675",1,"probability","right","yaw",24,1,0.525000011920929,0.525000011920929,5.05813499311762,"right",1091,1,"HIT"
"/home/kwm/julia/Experimente/2021-Imagery/LogFiles/Imagery","7005","w","23","right100.0","Threshold: 0.675",1,"probability","right","yaw",25,1,0.525000011920929,0.525000011920929,4.77065152864049,"right",1555,1,"HIT"
"/home/kwm/julia/Experimente/2021-Imagery/LogFiles/Imagery","7005","w","23","right100.0","Threshold: 0.675",1,"probability","right","yaw",26,1,-0.625000011920929,0.625000011920929,4.63473073802588,"left",1556,1,"CR"
"/home/kwm/julia/Experimente/2021-Imagery/LogFiles/Imagery","7005","w","23","right100.0","Threshold: 0.675",1,"probability","right","yaw",27,1,-0.725000011920929,0.725000011920929,5.09055911601848,"left",1402,1,"CR"
"/home/kwm/julia/Experimente/2021-Imagery/LogFiles/Imagery","7005","w","23","right100.0","Threshold: 0.675",1,"probability","right","yaw",28,1,-0.625000011920929,0.625000011920929,4.78377153720678,"left",1214,1,"CR"
"/home/kwm/julia/Experimente/2021-Imagery/LogFiles/Imagery","7005","w","23","right100.0","Threshold: 0.675",1,"probability","right","yaw",29,1,0.67499995,0.67499995,4.78289631587784,"right",3846,1,"HIT"
"/home/kwm/julia/Experimente/2021-Imagery/LogFiles/Imagery","7005","w","23","right100.0","Threshold: 0.675",1,"probability","right","yaw",30,1,-0.725000011920929,0.725000011920929,4.76735950509414,"left",1375,1,"CR"
"/home/kwm/julia/Experimente/2021-Imagery/LogFiles/Imagery","7005","w","23","right100.0","Threshold: 0.675",1,"probability","right","yaw",31,1,0.725000011920929,0.725000011920929,4.72542730992412,"right",1183,1,"HIT"
"/home/kwm/julia/Experimente/2021-Imagery/LogFiles/Imagery","7005","w","23","right100.0","Threshold: 0.675",1,"probability","right","yaw",32,1,-0.725000011920929,0.725000011920929,5.04625996687429,"right",1842,0,"FA"
"/home/kwm/julia/Experimente/2021-Imagery/LogFiles/Imagery","7005","w","23","right100.0","Threshold: 0.675",1,"probability","right","yaw",33,1,0.725000011920929,0.725000011920929,5.17340441581887,"right",1195,1,"HIT"
"/home/kwm/julia/Experimente/2021-Imagery/LogFiles/Imagery","7005","w","23","right100.0","Threshold: 0.675",1,"probability","right","yaw",34,1,-0.525000011920929,0.525000011920929,5.02476045761317,"left",1345,1,"CR"
"/home/kwm/julia/Experimente/2021-Imagery/LogFiles/Imagery","7005","w","23","right100.0","Threshold: 0.675",1,"probability","right","yaw",35,1,-0.625000011920929,0.625000011920929,4.83110868660231,"left",1034,1,"CR"
"/home/kwm/julia/Experimente/2021-Imagery/LogFiles/Imagery","7005","w","23","right100.0","Threshold: 0.675",1,"probability","right","yaw",36,1,0.575000011920929,0.575000011920929,5.24641263193876,"right",1239,1,"HIT"
"/home/kwm/julia/Experimente/2021-Imagery/LogFiles/Imagery","7005","w","23","right100.0","Threshold: 0.675",1,"probability","right","yaw",37,1,-0.525000011920929,0.525000011920929,4.98248583763122,"left",1566,1,"CR"
"/home/kwm/julia/Experimente/2021-Imagery/LogFiles/Imagery","7005","w","23","right100.0","Threshold: 0.675",1,"probability","right","yaw",38,1,-0.67499995,0.67499995,5.01803243557671,"right",1479,0,"FA"
"/home/kwm/julia/Experimente/2021-Imagery/LogFiles/Imagery","7005","w","23","right100.0","Threshold: 0.675",1,"probability","right","yaw",39,1,-0.625000011920929,0.625000011920929,4.90193382344455,"left",1573,1,"CR"
"/home/kwm/julia/Experimente/2021-Imagery/LogFiles/Imagery","7005","w","23","right100.0","Threshold: 0.675",1,"probability","right","yaw",40,1,0.725000011920929,0.725000011920929,5.49191162101542,"right",1296,1,"HIT"
"/home/kwm/julia/Experimente/2021-Imagery/LogFiles/Imagery","7005","w","23","right100.0","Threshold: 0.675",1,"probability","right","yaw",41,1,-0.725000011920929,0.725000011920929,5.35979862126955,"left",1430,1,"CR"
"/home/kwm/julia/Experimente/2021-Imagery/LogFiles/Imagery","7005","w","23","right100.0","Threshold: 0.675",1,"probability","right","yaw",42,1,-0.725000011920929,0.725000011920929,4.96170250616191,"left",3816,1,"CR"
"/home/kwm/julia/Experimente/2021-Imagery/LogFiles/Imagery","7005","w","23","right100.0","Threshold: 0.675",1,"probability","right","yaw",43,1,0.625000011920929,0.625000011920929,5.11830237338914,"right",1375,1,"HIT"
"/home/kwm/julia/Experimente/2021-Imagery/LogFiles/Imagery","7005","w","23","right100.0","Threshold: 0.675",1,"probability","right","yaw",44,1,0.67499995,0.67499995,4.95902149731919,"right",1228,1,"HIT"
"/home/kwm/julia/Experimente/2021-Imagery/LogFiles/Imagery","7005","w","23","right100.0","Threshold: 0.675",1,"probability","right","yaw",45,1,-0.575000011920929,0.575000011920929,5.05788572005072,"left",1401,1,"CR"
"/home/kwm/julia/Experimente/2021-Imagery/LogFiles/Imagery","7005","w","23","right100.0","Threshold: 0.675",1,"probability","right","yaw",46,1,-0.67499995,0.67499995,4.68328974924292,"left",1343,1,"CR"
"/home/kwm/julia/Experimente/2021-Imagery/LogFiles/Imagery","7005","w","23","right100.0","Threshold: 0.675",1,"probability","right","yaw",47,1,0.525000011920929,0.525000011920929,5.02002596138758,"right",1280,1,"HIT"
"/home/kwm/julia/Experimente/2021-Imagery/LogFiles/Imagery","7005","w","23","right100.0","Threshold: 0.675",1,"probability","right","yaw",48,1,0.625000011920929,0.625000011920929,4.71409122473942,"right",2645,1,"HIT"
"/home/kwm/julia/Experimente/2021-Imagery/LogFiles/Imagery","7005","w","23","right100.0","Threshold: 0.675",1,"probability","right","yaw",49,1,-0.67499995,0.67499995,5.41687484666805,"left",1230,1,"CR"
"/home/kwm/julia/Experimente/2021-Imagery/LogFiles/Imagery","7005","w","23","right100.0","Threshold: 0.675",1,"probability","right","yaw",50,1,-0.525000011920929,0.525000011920929,5.47338928232342,"left",1579,1,"CR"
"/home/kwm/julia/Experimente/2021-Imagery/LogFiles/Imagery","7005","w","23","right100.0","Threshold: 0.675",1,"probability","right","yaw",51,1,-0.725000011920929,0.725000011920929,5.04291042300698,"left",1097,1,"CR"
"/home/kwm/julia/Experimente/2021-Imagery/LogFiles/Imagery","7005","w","23","right100.0","Threshold: 0.675",1,"probability","right","yaw",52,1,-0.575000011920929,0.575000011920929,4.98534634222553,"right",2802,0,"FA"
"/home/kwm/julia/Experimente/2021-Imagery/LogFiles/Imagery","7005","w","23","right100.0","Threshold: 0.675",1,"probability","right","yaw",53,1,0.625000011920929,0.625000011920929,4.96239085044821,"right",1572,1,"HIT"
"/home/kwm/julia/Experimente/2021-Imagery/LogFiles/Imagery","7005","w","23","right100.0","Threshold: 0.675",1,"probability","right","yaw",54,1,0.575000011920929,0.575000011920929,4.69235470223798,"right",3608,1,"HIT"
"/home/kwm/julia/Experimente/2021-Imagery/LogFiles/Imagery","7005","w","23","right100.0","Threshold: 0.675",1,"probability","right","yaw",55,1,-0.575000011920929,0.575000011920929,4.97956549064727,"left",2297,1,"CR"
"/home/kwm/julia/Experimente/2021-Imagery/LogFiles/Imagery","7005","w","23","right100.0","Threshold: 0.675",1,"probability","right","yaw",56,1,0.525000011920929,0.525000011920929,4.90092411928171,"right",1327,1,"HIT"
"/home/kwm/julia/Experimente/2021-Imagery/LogFiles/Imagery","7005","w","23","right100.0","Threshold: 0.675",1,"probability","right","yaw",57,1,-0.67499995,0.67499995,5.35058629948778,"left",1645,1,"CR"
"/home/kwm/julia/Experimente/2021-Imagery/LogFiles/Imagery","7005","w","23","right100.0","Threshold: 0.675",1,"probability","right","yaw",58,1,-0.625000011920929,0.625000011920929,5.28483608917461,"left",1344,1,"CR"
"/home/kwm/julia/Experimente/2021-Imagery/LogFiles/Imagery","7005","w","23","right100.0","Threshold: 0.675",1,"probability","right","yaw",59,1,0.67499995,0.67499995,5.03254920455734,"right",1074,1,"HIT"
"/home/kwm/julia/Experimente/2021-Imagery/LogFiles/Imagery","7005","w","23","right100.0","Threshold: 0.675",1,"probability","right","yaw",60,1,0.575000011920929,0.575000011920929,5.35668475578557,"right",1232,1,"HIT"
"/home/kwm/julia/Experimente/2021-Imagery/LogFiles/Imagery","7005","w","23","right100.0","Threshold: 0.675",1,"probability","right","yaw",61,1,0.575000011920929,0.575000011920929,4.65624299494862,"left",3733,0,"MISS"
"/home/kwm/julia/Experimente/2021-Imagery/LogFiles/Imagery","7005","w","23","right100.0","Threshold: 0.675",1,"probability","right","yaw",62,1,-0.525000011920929,0.525000011920929,4.82583231738821,"left",2152,1,"CR"
"/home/kwm/julia/Experimente/2021-Imagery/LogFiles/Imagery","7005","w","23","right100.0","Threshold: 0.675",1,"probability","right","yaw",63,1,0.67499995,0.67499995,5.24082027441331,"right",1028,1,"HIT"
"/home/kwm/julia/Experimente/2021-Imagery/LogFiles/Imagery","7005","w","23","right100.0","Threshold: 0.675",1,"probability","right","yaw",64,1,0.575000011920929,0.575000011920929,5.1976727003848,"left",2423,0,"MISS"
"/home/kwm/julia/Experimente/2021-Imagery/LogFiles/Imagery","7005","w","23","right100.0","Threshold: 0.675",1,"probability","right","yaw",65,1,0.725000011920929,0.725000011920929,5.2617723693965,"right",1164,1,"HIT"
"/home/kwm/julia/Experimente/2021-Imagery/LogFiles/Imagery","7005","w","23","right100.0","Threshold: 0.675",1,"probability","right","yaw",66,1,0.725000011920929,0.725000011920929,5.39198145382069,"right",1053,1,"HIT"
"/home/kwm/julia/Experimente/2021-Imagery/LogFiles/Imagery","7005","w","23","right100.0","Threshold: 0.675",1,"probability","right","yaw",67,1,-0.525000011920929,0.525000011920929,5.31536278011214,"right",3450,0,"FA"
"/home/kwm/julia/Experimente/2021-Imagery/LogFiles/Imagery","7005","w","23","right100.0","Threshold: 0.675",1,"probability","right","yaw",68,1,0.575000011920929,0.575000011920929,4.8743630204372,"right",1081,1,"HIT"
"/home/kwm/julia/Experimente/2021-Imagery/LogFiles/Imagery","7005","w","23","right100.0","Threshold: 0.675",1,"probability","right","yaw",69,1,-0.625000011920929,0.625000011920929,5.02954053916939,"left",2383,1,"CR"
"/home/kwm/julia/Experimente/2021-Imagery/LogFiles/Imagery","7005","w","23","right100.0","Threshold: 0.675",1,"probability","right","yaw",70,1,0.625000011920929,0.625000011920929,4.49906543151296,"right",1090,1,"HIT"
"/home/kwm/julia/Experimente/2021-Imagery/LogFiles/Imagery","7005","w","23","right100.0","Threshold: 0.675",1,"probability","right","yaw",71,1,0.67499995,0.67499995,4.77224588223889,"right",1604,1,"HIT"
"/home/kwm/julia/Experimente/2021-Imagery/LogFiles/Imagery","7005","w","23","right100.0","Threshold: 0.675",1,"probability","right","yaw",72,1,-0.575000011920929,0.575000011920929,4.93731813652229,"left",1245,1,"CR"
"/home/kwm/julia/Experimente/2021-Imagery/LogFiles/Imagery","7005","w","23","right100.0","Threshold: 0.675",1,"probability","right","yaw",73,1,0.67499995,0.67499995,5.13823800597669,"left",3697,0,"MISS"
"/home/kwm/julia/Experimente/2021-Imagery/LogFiles/Imagery","7005","w","23","right100.0","Threshold: 0.675",1,"probability","right","yaw",74,1,0.725000011920929,0.725000011920929,5.11287588846836,"right",1443,1,"HIT"
"/home/kwm/julia/Experimente/2021-Imagery/LogFiles/Imagery","7005","w","23","right100.0","Threshold: 0.675",1,"probability","right","yaw",75,1,-0.67499995,0.67499995,4.15381388578438,"left",1267,1,"CR"
"/home/kwm/julia/Experimente/2021-Imagery/LogFiles/Imagery","7005","w","23","right100.0","Threshold: 0.675",1,"probability","right","yaw",76,1,0.575000011920929,0.575000011920929,5.15806067614218,"right",1451,1,"HIT"
"/home/kwm/julia/Experimente/2021-Imagery/LogFiles/Imagery","7005","w","23","right100.0","Threshold: 0.675",1,"probability","right","yaw",77,1,0.725000011920929,0.725000011920929,5.1431283354328,"right",1083,1,"HIT"
"/home/kwm/julia/Experimente/2021-Imagery/LogFiles/Imagery","7005","w","23","right100.0","Threshold: 0.675",1,"probability","right","yaw",78,1,-0.525000011920929,0.525000011920929,5.11743736738795,"left",1172,1,"CR"
"/home/kwm/julia/Experimente/2021-Imagery/LogFiles/Imagery","7005","w","23","right100.0","Threshold: 0.675",1,"probability","right","yaw",79,1,-0.525000011920929,0.525000011920929,4.33452185821575,"right",3123,0,"FA"
"/home/kwm/julia/Experimente/2021-Imagery/LogFiles/Imagery","7005","w","23","right100.0","Threshold: 0.675",1,"probability","right","yaw",80,1,-0.67499995,0.67499995,4.68393964315472,"left",1278,1,"CR"
"/home/kwm/julia/Experimente/2021-Imagery/LogFiles/Imagery","7005","w","23","right100.0","Threshold: 0.675",1,"probability","right","yaw",81,1,0.575000011920929,0.575000011920929,4.66542817954457,"right",1501,1,"HIT"
"/home/kwm/julia/Experimente/2021-Imagery/LogFiles/Imagery","7005","w","23","right100.0","Threshold: 0.675",1,"probability","right","yaw",82,1,-0.725000011920929,0.725000011920929,5.21731655972264,"left",1254,1,"CR"
"/home/kwm/julia/Experimente/2021-Imagery/LogFiles/Imagery","7005","w","23","right100.0","Threshold: 0.675",1,"probability","right","yaw",83,1,0.67499995,0.67499995,4.79800673226642,"right",1272,1,"HIT"
"/home/kwm/julia/Experimente/2021-Imagery/LogFiles/Imagery","7005","w","23","right100.0","Threshold: 0.675",1,"probability","right","yaw",84,1,-0.67499995,0.67499995,4.89696651995564,"left",3110,1,"CR"
"/home/kwm/julia/Experimente/2021-Imagery/LogFiles/Imagery","7005","w","23","right100.0","Threshold: 0.675",1,"probability","right","yaw",85,1,-0.625000011920929,0.625000011920929,4.72914632934283,"left",2303,1,"CR"
"/home/kwm/julia/Experimente/2021-Imagery/LogFiles/Imagery","7005","w","23","right100.0","Threshold: 0.675",1,"probability","right","yaw",86,1,0.625000011920929,0.625000011920929,4.51956986378069,"right",3463,1,"HIT"
"/home/kwm/julia/Experimente/2021-Imagery/LogFiles/Imagery","7005","w","23","right100.0","Threshold: 0.675",1,"probability","right","yaw",87,1,0.525000011920929,0.525000011920929,4.80689226286052,"right",4422,1,"HIT"
"/home/kwm/julia/Experimente/2021-Imagery/LogFiles/Imagery","7005","w","23","right100.0","Threshold: 0.675",1,"probability","right","yaw",88,1,0.625000011920929,0.625000011920929,5.35960670189309,"right",1651,1,"HIT"
"/home/kwm/julia/Experimente/2021-Imagery/LogFiles/Imagery","7005","w","23","right100.0","Threshold: 0.675",1,"probability","right","yaw",89,1,0.625000011920929,0.625000011920929,5.51200489644992,"right",1317,1,"HIT"
"/home/kwm/julia/Experimente/2021-Imagery/LogFiles/Imagery","7005","w","23","right100.0","Threshold: 0.675",1,"probability","right","yaw",90,1,0.625000011920929,0.625000011920929,5.0375936428301,"right",1230,1,"HIT"
"/home/kwm/julia/Experimente/2021-Imagery/LogFiles/Imagery","7005","w","23","right100.0","Threshold: 0.675",1,"probability","right","yaw",91,1,0.725000011920929,0.725000011920929,4.63836174378597,"right",1574,1,"HIT"
"/home/kwm/julia/Experimente/2021-Imagery/LogFiles/Imagery","7005","w","23","right100.0","Threshold: 0.675",1,"probability","right","yaw",92,1,0.525000011920929,0.525000011920929,5.3823917336223,"right",4462,1,"HIT"
"/home/kwm/julia/Experimente/2021-Imagery/LogFiles/Imagery","7005","w","23","right100.0","Threshold: 0.675",1,"probability","right","yaw",93,1,-0.67499995,0.67499995,4.97627444560013,"left",1215,1,"CR"
"/home/kwm/julia/Experimente/2021-Imagery/LogFiles/Imagery","7005","w","23","right100.0","Threshold: 0.675",1,"probability","right","yaw",94,1,-0.575000011920929,0.575000011920929,4.60217338652614,"left",1370,1,"CR"
"/home/kwm/julia/Experimente/2021-Imagery/LogFiles/Imagery","7005","w","23","right100.0","Threshold: 0.675",1,"probability","right","yaw",95,1,-0.525000011920929,0.525000011920929,5.46622969706621,"left",1454,1,"CR"
"/home/kwm/julia/Experimente/2021-Imagery/LogFiles/Imagery","7005","w","23","right100.0","Threshold: 0.675",1,"probability","right","yaw",96,1,-0.625000011920929,0.625000011920929,5.18252489667833,"left",1840,1,"CR"
"/home/kwm/julia/Experimente/2021-Imagery/LogFiles/Imagery","7005","w","23","right100.0","Threshold: 0.675",1,"probability","right","yaw",97,1,-0.67499995,0.67499995,4.67748302614562,"left",1435,1,"CR"
"/home/kwm/julia/Experimente/2021-Imagery/LogFiles/Imagery","7005","w","23","right100.0","Threshold: 0.675",1,"probability","right","yaw",98,1,-0.575000011920929,0.575000011920929,5.01264788318804,"left",1393,1,"CR"
"/home/kwm/julia/Experimente/2021-Imagery/LogFiles/Imagery","7005","w","23","right100.0","Threshold: 0.675",1,"probability","right","yaw",99,1,0.525000011920929,0.525000011920929,5.0421759398604,"right",1204,1,"HIT"
"/home/kwm/julia/Experimente/2021-Imagery/LogFiles/Imagery","7005","w","23","right100.0","Threshold: 0.675",1,"probability","right","yaw",100,1,0.625000011920929,0.625000011920929,4.65279058956008,"right",1606,1,"HIT"
"/home/kwm/julia/Experimente/2021-Imagery/LogFiles/Imagery","7005","w","23","right100.0","Threshold: 0.675",1,"probability","left","yaw",1,1,0.67499995,0.67499995,4.70853199815563,"right",2055,1,"HIT"
"/home/kwm/julia/Experimente/2021-Imagery/LogFiles/Imagery","7005","w","23","right100.0","Threshold: 0.675",1,"probability","left","yaw",2,1,-0.67499995,0.67499995,5.0388438664513,"left",1756,1,"CR"
"/home/kwm/julia/Experimente/2021-Imagery/LogFiles/Imagery","7005","w","23","right100.0","Threshold: 0.675",1,"probability","left","yaw",3,1,-0.525000011920929,0.525000011920929,5.48007371199207,"left",1748,1,"CR"
"/home/kwm/julia/Experimente/2021-Imagery/LogFiles/Imagery","7005","w","23","right100.0","Threshold: 0.675",1,"probability","left","yaw",4,1,-0.725000011920929,0.725000011920929,5.45091399691303,"left",1450,1,"CR"
"/home/kwm/julia/Experimente/2021-Imagery/LogFiles/Imagery","7005","w","23","right100.0","Threshold: 0.675",1,"probability","left","yaw",5,1,0.625000011920929,0.625000011920929,4.60795529245107,"right",1457,1,"HIT"
"/home/kwm/julia/Experimente/2021-Imagery/LogFiles/Imagery","7005","w","23","right100.0","Threshold: 0.675",1,"probability","left","yaw",6,1,0.525000011920929,0.525000011920929,5.68758625203363,"right",1507,1,"HIT"
"/home/kwm/julia/Experimente/2021-Imagery/LogFiles/Imagery","7005","w","23","right100.0","Threshold: 0.675",1,"probability","left","yaw",7,1,-0.525000011920929,0.525000011920929,5.00967902186235,"left",1680,1,"CR"
"/home/kwm/julia/Experimente/2021-Imagery/LogFiles/Imagery","7005","w","23","right100.0","Threshold: 0.675",1,"probability","left","yaw",8,1,0.725000011920929,0.725000011920929,5.07415409144029,"right",1381,1,"HIT"
"/home/kwm/julia/Experimente/2021-Imagery/LogFiles/Imagery","7005","w","23","right100.0","Threshold: 0.675",1,"probability","left","yaw",9,1,-0.625000011920929,0.625000011920929,4.89321367251629,"left",1409,1,"CR"
"/home/kwm/julia/Experimente/2021-Imagery/LogFiles/Imagery","7005","w","23","right100.0","Threshold: 0.675",1,"probability","left","yaw",10,1,-0.525000011920929,0.525000011920929,4.4522974182135,"left",3330,1,"CR"
"/home/kwm/julia/Experimente/2021-Imagery/LogFiles/Imagery","7005","w","23","right100.0","Threshold: 0.675",1,"probability","left","yaw",11,1,-0.525000011920929,0.525000011920929,4.88860081072501,"left",2036,1,"CR"
"/home/kwm/julia/Experimente/2021-Imagery/LogFiles/Imagery","7005","w","23","right100.0","Threshold: 0.675",1,"probability","left","yaw",12,1,0.725000011920929,0.725000011920929,5.04446074116328,"right",1343,1,"HIT"
"/home/kwm/julia/Experimente/2021-Imagery/LogFiles/Imagery","7005","w","23","right100.0","Threshold: 0.675",1,"probability","left","yaw",13,1,0.575000011920929,0.575000011920929,4.747294825139,"right",1230,1,"HIT"
"/home/kwm/julia/Experimente/2021-Imagery/LogFiles/Imagery","7005","w","23","right100.0","Threshold: 0.675",1,"probability","left","yaw",14,1,0.625000011920929,0.625000011920929,5.04081823010565,"right",1339,1,"HIT"
"/home/kwm/julia/Experimente/2021-Imagery/LogFiles/Imagery","7005","w","23","right100.0","Threshold: 0.675",1,"probability","left","yaw",15,1,-0.625000011920929,0.625000011920929,5.18168583023498,"left",3906,1,"CR"
"/home/kwm/julia/Experimente/2021-Imagery/LogFiles/Imagery","7005","w","23","right100.0","Threshold: 0.675",1,"probability","left","yaw",16,1,-0.625000011920929,0.625000011920929,4.59632113835049,"left",1417,1,"CR"
"/home/kwm/julia/Experimente/2021-Imagery/LogFiles/Imagery","7005","w","23","right100.0","Threshold: 0.675",1,"probability","left","yaw",17,1,0.725000011920929,0.725000011920929,5.22887363117081,"right",1119,1,"HIT"
"/home/kwm/julia/Experimente/2021-Imagery/LogFiles/Imagery","7005","w","23","right100.0","Threshold: 0.675",1,"probability","left","yaw",18,1,0.575000011920929,0.575000011920929,5.43288464352034,"right",1190,1,"HIT"
"/home/kwm/julia/Experimente/2021-Imagery/LogFiles/Imagery","7005","w","23","right100.0","Threshold: 0.675",1,"probability","left","yaw",19,1,-0.67499995,0.67499995,5.29326109766194,"left",3637,1,"CR"
"/home/kwm/julia/Experimente/2021-Imagery/LogFiles/Imagery","7005","w","23","right100.0","Threshold: 0.675",1,"probability","left","yaw",20,1,-0.575000011920929,0.575000011920929,5.17268308822446,"left",1391,1,"CR"
"/home/kwm/julia/Experimente/2021-Imagery/LogFiles/Imagery","7005","w","23","right100.0","Threshold: 0.675",1,"probability","left","yaw",21,1,-0.525000011920929,0.525000011920929,4.77506461856158,"left",2600,1,"CR"
"/home/kwm/julia/Experimente/2021-Imagery/LogFiles/Imagery","7005","w","23","right100.0","Threshold: 0.675",1,"probability","left","yaw",22,1,0.67499995,0.67499995,5.12697295919812,"right",1453,1,"HIT"
"/home/kwm/julia/Experimente/2021-Imagery/LogFiles/Imagery","7005","w","23","right100.0","Threshold: 0.675",1,"probability","left","yaw",23,1,-0.625000011920929,0.625000011920929,4.98488443595451,"left",1454,1,"CR"
"/home/kwm/julia/Experimente/2021-Imagery/LogFiles/Imagery","7005","w","23","right100.0","Threshold: 0.675",1,"probability","left","yaw",24,1,0.575000011920929,0.575000011920929,5.09626170762304,"right",1518,1,"HIT"
"/home/kwm/julia/Experimente/2021-Imagery/LogFiles/Imagery","7005","w","23","right100.0","Threshold: 0.675",1,"probability","left","yaw",25,1,0.725000011920929,0.725000011920929,4.92111134235188,"right",1147,1,"HIT"
"/home/kwm/julia/Experimente/2021-Imagery/LogFiles/Imagery","7005","w","23","right100.0","Threshold: 0.675",1,"probability","left","yaw",26,1,0.725000011920929,0.725000011920929,4.41641501677325,"right",1543,1,"HIT"
"/home/kwm/julia/Experimente/2021-Imagery/LogFiles/Imagery","7005","w","23","right100.0","Threshold: 0.675",1,"probability","left","yaw",27,1,0.575000011920929,0.575000011920929,4.95704704387847,"right",2320,1,"HIT"
"/home/kwm/julia/Experimente/2021-Imagery/LogFiles/Imagery","7005","w","23","right100.0","Threshold: 0.675",1,"probability","left","yaw",28,1,0.525000011920929,0.525000011920929,5.28397522647399,"right",1473,1,"HIT"
"/home/kwm/julia/Experimente/2021-Imagery/LogFiles/Imagery","7005","w","23","right100.0","Threshold: 0.675",1,"probability","left","yaw",29,1,0.725000011920929,0.725000011920929,5.74205187143161,"right",1342,1,"HIT"
"/home/kwm/julia/Experimente/2021-Imagery/LogFiles/Imagery","7005","w","23","right100.0","Threshold: 0.675",1,"probability","left","yaw",30,1,-0.525000011920929,0.525000011920929,4.94128831848632,"left",3708,1,"CR"
"/home/kwm/julia/Experimente/2021-Imagery/LogFiles/Imagery","7005","w","23","right100.0","Threshold: 0.675",1,"probability","left","yaw",31,1,0.725000011920929,0.725000011920929,5.36087397469203,"right",1402,1,"HIT"
"/home/kwm/julia/Experimente/2021-Imagery/LogFiles/Imagery","7005","w","23","right100.0","Threshold: 0.675",1,"probability","left","yaw",32,1,-0.625000011920929,0.625000011920929,4.6874602395228,"left",1388,1,"CR"
"/home/kwm/julia/Experimente/2021-Imagery/LogFiles/Imagery","7005","w","23","right100.0","Threshold: 0.675",1,"probability","left","yaw",33,1,-0.725000011920929,0.725000011920929,4.91260979751972,"left",1781,1,"CR"
"/home/kwm/julia/Experimente/2021-Imagery/LogFiles/Imagery","7005","w","23","right100.0","Threshold: 0.675",1,"probability","left","yaw",34,1,-0.575000011920929,0.575000011920929,5.06607899855581,"left",1931,1,"CR"
"/home/kwm/julia/Experimente/2021-Imagery/LogFiles/Imagery","7005","w","23","right100.0","Threshold: 0.675",1,"probability","left","yaw",35,1,-0.575000011920929,0.575000011920929,5.58423525753706,"left",1635,1,"CR"
"/home/kwm/julia/Experimente/2021-Imagery/LogFiles/Imagery","7005","w","23","right100.0","Threshold: 0.675",1,"probability","left","yaw",36,1,-0.525000011920929,0.525000011920929,5.22532454316478,"left",3318,1,"CR"
"/home/kwm/julia/Experimente/2021-Imagery/LogFiles/Imagery","7005","w","23","right100.0","Threshold: 0.675",1,"probability","left","yaw",37,1,-0.725000011920929,0.725000011920929,4.9614957030684,"left",2807,1,"CR"
"/home/kwm/julia/Experimente/2021-Imagery/LogFiles/Imagery","7005","w","23","right100.0","Threshold: 0.675",1,"probability","left","yaw",38,1,0.625000011920929,0.625000011920929,5.18037734821367,"right",1561,1,"HIT"
"/home/kwm/julia/Experimente/2021-Imagery/LogFiles/Imagery","7005","w","23","right100.0","Threshold: 0.675",1,"probability","left","yaw",39,1,0.525000011920929,0.525000011920929,4.95130275325526,"right",1290,1,"HIT"
"/home/kwm/julia/Experimente/2021-Imagery/LogFiles/Imagery","7005","w","23","right100.0","Threshold: 0.675",1,"probability","left","yaw",40,1,0.67499995,0.67499995,5.0592857793534,"right",1144,1,"HIT"
"/home/kwm/julia/Experimente/2021-Imagery/LogFiles/Imagery","7005","w","23","right100.0","Threshold: 0.675",1,"probability","left","yaw",41,1,0.625000011920929,0.625000011920929,4.55649793203585,"right",1171,1,"HIT"
"/home/kwm/julia/Experimente/2021-Imagery/LogFiles/Imagery","7005","w","23","right100.0","Threshold: 0.675",1,"probability","left","yaw",42,1,0.525000011920929,0.525000011920929,4.435036902736,"right",1497,1,"HIT"
"/home/kwm/julia/Experimente/2021-Imagery/LogFiles/Imagery","7005","w","23","right100.0","Threshold: 0.675",1,"probability","left","yaw",43,1,0.725000011920929,0.725000011920929,4.8270722432146,"right",2168,1,"HIT"
"/home/kwm/julia/Experimente/2021-Imagery/LogFiles/Imagery","7005","w","23","right100.0","Threshold: 0.675",1,"probability","left","yaw",44,1,-0.67499995,0.67499995,4.77158109672378,"left",1199,1,"CR"
"/home/kwm/julia/Experimente/2021-Imagery/LogFiles/Imagery","7005","w","23","right100.0","Threshold: 0.675",1,"probability","left","yaw",45,1,-0.67499995,0.67499995,5.45650535541583,"left",2607,1,"CR"
"/home/kwm/julia/Experimente/2021-Imagery/LogFiles/Imagery","7005","w","23","right100.0","Threshold: 0.675",1,"probability","left","yaw",46,1,0.67499995,0.67499995,4.96359160484766,"right",1170,1,"HIT"
"/home/kwm/julia/Experimente/2021-Imagery/LogFiles/Imagery","7005","w","23","right100.0","Threshold: 0.675",1,"probability","left","yaw",47,1,-0.67499995,0.67499995,4.7728403980038,"left",1539,1,"CR"
"/home/kwm/julia/Experimente/2021-Imagery/LogFiles/Imagery","7005","w","23","right100.0","Threshold: 0.675",1,"probability","left","yaw",48,1,0.575000011920929,0.575000011920929,5.11487832164058,"right",1583,1,"HIT"
"/home/kwm/julia/Experimente/2021-Imagery/LogFiles/Imagery","7005","w","23","right100.0","Threshold: 0.675",1,"probability","left","yaw",49,1,0.625000011920929,0.625000011920929,4.96384619654962,"right",1311,1,"HIT"
"/home/kwm/julia/Experimente/2021-Imagery/LogFiles/Imagery","7005","w","23","right100.0","Threshold: 0.675",1,"probability","left","yaw",50,1,-0.575000011920929,0.575000011920929,4.96021832928311,"left",1313,1,"CR"
"/home/kwm/julia/Experimente/2021-Imagery/LogFiles/Imagery","7005","w","23","right100.0","Threshold: 0.675",1,"probability","left","yaw",51,1,-0.575000011920929,0.575000011920929,5.2232995267769,"left",3765,1,"CR"
"/home/kwm/julia/Experimente/2021-Imagery/LogFiles/Imagery","7005","w","23","right100.0","Threshold: 0.675",1,"probability","left","yaw",52,1,-0.525000011920929,0.525000011920929,5.01733889707082,"left",1124,1,"CR"
"/home/kwm/julia/Experimente/2021-Imagery/LogFiles/Imagery","7005","w","23","right100.0","Threshold: 0.675",1,"probability","left","yaw",53,1,0.575000011920929,0.575000011920929,5.42399176781792,"right",2033,1,"HIT"
"/home/kwm/julia/Experimente/2021-Imagery/LogFiles/Imagery","7005","w","23","right100.0","Threshold: 0.675",1,"probability","left","yaw",54,1,0.525000011920929,0.525000011920929,4.55318973236773,"right",1284,1,"HIT"
"/home/kwm/julia/Experimente/2021-Imagery/LogFiles/Imagery","7005","w","23","right100.0","Threshold: 0.675",1,"probability","left","yaw",55,1,0.625000011920929,0.625000011920929,5.30671784430653,"right",1266,1,"HIT"
"/home/kwm/julia/Experimente/2021-Imagery/LogFiles/Imagery","7005","w","23","right100.0","Threshold: 0.675",1,"probability","left","yaw",56,1,0.725000011920929,0.725000011920929,5.0973274777996,"right",1544,1,"HIT"
"/home/kwm/julia/Experimente/2021-Imagery/LogFiles/Imagery","7005","w","23","right100.0","Threshold: 0.675",1,"probability","left","yaw",57,1,0.625000011920929,0.625000011920929,5.38799058449186,"right",1618,1,"HIT"
"/home/kwm/julia/Experimente/2021-Imagery/LogFiles/Imagery","7005","w","23","right100.0","Threshold: 0.675",1,"probability","left","yaw",58,1,0.525000011920929,0.525000011920929,5.14252562133025,"right",1728,1,"HIT"
"/home/kwm/julia/Experimente/2021-Imagery/LogFiles/Imagery","7005","w","23","right100.0","Threshold: 0.675",1,"probability","left","yaw",59,1,0.525000011920929,0.525000011920929,4.81599589976283,"right",1652,1,"HIT"
"/home/kwm/julia/Experimente/2021-Imagery/LogFiles/Imagery","7005","w","23","right100.0","Threshold: 0.675",1,"probability","left","yaw",60,1,-0.67499995,0.67499995,5.16650129767836,"left",1409,1,"CR"
"/home/kwm/julia/Experimente/2021-Imagery/LogFiles/Imagery","7005","w","23","right100.0","Threshold: 0.675",1,"probability","left","yaw",61,1,-0.67499995,0.67499995,5.4751968898553,"left",954,1,"CR"
"/home/kwm/julia/Experimente/2021-Imagery/LogFiles/Imagery","7005","w","23","right100.0","Threshold: 0.675",1,"probability","left","yaw",62,1,-0.575000011920929,0.575000011920929,4.74515766827877,"left",2191,1,"CR"
"/home/kwm/julia/Experimente/2021-Imagery/LogFiles/Imagery","7005","w","23","right100.0","Threshold: 0.675",1,"probability","left","yaw",63,1,0.67499995,0.67499995,5.21706329793857,"right",4540,1,"HIT"
"/home/kwm/julia/Experimente/2021-Imagery/LogFiles/Imagery","7005","w","23","right100.0","Threshold: 0.675",1,"probability","left","yaw",64,1,-0.67499995,0.67499995,5.44582237114539,"left",2630,1,"CR"
"/home/kwm/julia/Experimente/2021-Imagery/LogFiles/Imagery","7005","w","23","right100.0","Threshold: 0.675",1,"probability","left","yaw",65,1,0.525000011920929,0.525000011920929,4.6687510453026,"right",1600,1,"HIT"
"/home/kwm/julia/Experimente/2021-Imagery/LogFiles/Imagery","7005","w","23","right100.0","Threshold: 0.675",1,"probability","left","yaw",66,1,-0.725000011920929,0.725000011920929,5.17184505737509,"left",1303,1,"CR"
"/home/kwm/julia/Experimente/2021-Imagery/LogFiles/Imagery","7005","w","23","right100.0","Threshold: 0.675",1,"probability","left","yaw",67,1,0.625000011920929,0.625000011920929,4.82467418581776,"right",1294,1,"HIT"
"/home/kwm/julia/Experimente/2021-Imagery/LogFiles/Imagery","7005","w","23","right100.0","Threshold: 0.675",1,"probability","left","yaw",68,1,-0.725000011920929,0.725000011920929,5.27486267152561,"left",2450,1,"CR"
"/home/kwm/julia/Experimente/2021-Imagery/LogFiles/Imagery","7005","w","23","right100.0","Threshold: 0.675",1,"probability","left","yaw",69,1,-0.725000011920929,0.725000011920929,4.37533382935626,"left",1606,1,"CR"
"/home/kwm/julia/Experimente/2021-Imagery/LogFiles/Imagery","7005","w","23","right100.0","Threshold: 0.675",1,"probability","left","yaw",70,1,-0.67499995,0.67499995,5.20047317359956,"right",2376,0,"FA"
"/home/kwm/julia/Experimente/2021-Imagery/LogFiles/Imagery","7005","w","23","right100.0","Threshold: 0.675",1,"probability","left","yaw",71,1,0.625000011920929,0.625000011920929,5.09708243233133,"right",1795,1,"HIT"
"/home/kwm/julia/Experimente/2021-Imagery/LogFiles/Imagery","7005","w","23","right100.0","Threshold: 0.675",1,"probability","left","yaw",72,1,-0.67499995,0.67499995,5.74172634587917,"left",3551,1,"CR"
"/home/kwm/julia/Experimente/2021-Imagery/LogFiles/Imagery","7005","w","23","right100.0","Threshold: 0.675",1,"probability","left","yaw",73,1,-0.575000011920929,0.575000011920929,5.15429943101571,"left",2195,1,"CR"
"/home/kwm/julia/Experimente/2021-Imagery/LogFiles/Imagery","7005","w","23","right100.0","Threshold: 0.675",1,"probability","left","yaw",74,1,0.67499995,0.67499995,5.17060446910616,"right",1322,1,"HIT"
"/home/kwm/julia/Experimente/2021-Imagery/LogFiles/Imagery","7005","w","23","right100.0","Threshold: 0.675",1,"probability","left","yaw",75,1,-0.725000011920929,0.725000011920929,4.99013488604888,"left",1536,1,"CR"
"/home/kwm/julia/Experimente/2021-Imagery/LogFiles/Imagery","7005","w","23","right100.0","Threshold: 0.675",1,"probability","left","yaw",76,1,-0.625000011920929,0.625000011920929,5.04268619452037,"left",2167,1,"CR"
"/home/kwm/julia/Experimente/2021-Imagery/LogFiles/Imagery","7005","w","23","right100.0","Threshold: 0.675",1,"probability","left","yaw",77,1,-0.575000011920929,0.575000011920929,4.52486935762733,"left",1572,1,"CR"
"/home/kwm/julia/Experimente/2021-Imagery/LogFiles/Imagery","7005","w","23","right100.0","Threshold: 0.675",1,"probability","left","yaw",78,1,-0.575000011920929,0.575000011920929,4.75993851249066,"left",1247,1,"CR"
"/home/kwm/julia/Experimente/2021-Imagery/LogFiles/Imagery","7005","w","23","right100.0","Threshold: 0.675",1,"probability","left","yaw",79,1,-0.725000011920929,0.725000011920929,5.21248978428473,"left",1277,1,"CR"
"/home/kwm/julia/Experimente/2021-Imagery/LogFiles/Imagery","7005","w","23","right100.0","Threshold: 0.675",1,"probability","left","yaw",80,1,-0.625000011920929,0.625000011920929,4.84337232362209,"left",1655,1,"CR"
"/home/kwm/julia/Experimente/2021-Imagery/LogFiles/Imagery","7005","w","23","right100.0","Threshold: 0.675",1,"probability","left","yaw",81,1,-0.625000011920929,0.625000011920929,5.44569875168135,"left",1396,1,"CR"
"/home/kwm/julia/Experimente/2021-Imagery/LogFiles/Imagery","7005","w","23","right100.0","Threshold: 0.675",1,"probability","left","yaw",82,1,-0.525000011920929,0.525000011920929,4.97224781567408,"left",1756,1,"CR"
"/home/kwm/julia/Experimente/2021-Imagery/LogFiles/Imagery","7005","w","23","right100.0","Threshold: 0.675",1,"probability","left","yaw",83,1,0.67499995,0.67499995,5.13257173219234,"right",1130,1,"HIT"
"/home/kwm/julia/Experimente/2021-Imagery/LogFiles/Imagery","7005","w","23","right100.0","Threshold: 0.675",1,"probability","left","yaw",84,1,-0.625000011920929,0.625000011920929,5.19773491274064,"left",1462,1,"CR"
"/home/kwm/julia/Experimente/2021-Imagery/LogFiles/Imagery","7005","w","23","right100.0","Threshold: 0.675",1,"probability","left","yaw",85,1,-0.725000011920929,0.725000011920929,5.27936740973506,"left",3909,1,"CR"
"/home/kwm/julia/Experimente/2021-Imagery/LogFiles/Imagery","7005","w","23","right100.0","Threshold: 0.675",1,"probability","left","yaw",86,1,0.67499995,0.67499995,5.16962575390834,"right",1230,1,"HIT"
"/home/kwm/julia/Experimente/2021-Imagery/LogFiles/Imagery","7005","w","23","right100.0","Threshold: 0.675",1,"probability","left","yaw",87,1,0.575000011920929,0.575000011920929,4.98310241781889,"right",1965,1,"HIT"
"/home/kwm/julia/Experimente/2021-Imagery/LogFiles/Imagery","7005","w","23","right100.0","Threshold: 0.675",1,"probability","left","yaw",88,1,0.67499995,0.67499995,4.66841509804372,"right",1240,1,"HIT"
"/home/kwm/julia/Experimente/2021-Imagery/LogFiles/Imagery","7005","w","23","right100.0","Threshold: 0.675",1,"probability","left","yaw",89,1,0.725000011920929,0.725000011920929,4.64314066485772,"right",1819,1,"HIT"
"/home/kwm/julia/Experimente/2021-Imagery/LogFiles/Imagery","7005","w","23","right100.0","Threshold: 0.675",1,"probability","left","yaw",90,1,-0.625000011920929,0.625000011920929,5.35424832616931,"left",2226,1,"CR"
"/home/kwm/julia/Experimente/2021-Imagery/LogFiles/Imagery","7005","w","23","right100.0","Threshold: 0.675",1,"probability","left","yaw",91,1,0.575000011920929,0.575000011920929,5.06572042373282,"right",1495,1,"HIT"
"/home/kwm/julia/Experimente/2021-Imagery/LogFiles/Imagery","7005","w","23","right100.0","Threshold: 0.675",1,"probability","left","yaw",92,1,-0.575000011920929,0.575000011920929,5.21346107619372,"right",1765,0,"FA"
"/home/kwm/julia/Experimente/2021-Imagery/LogFiles/Imagery","7005","w","23","right100.0","Threshold: 0.675",1,"probability","left","yaw",93,1,-0.725000011920929,0.725000011920929,4.79904272138709,"left",1182,1,"CR"
"/home/kwm/julia/Experimente/2021-Imagery/LogFiles/Imagery","7005","w","23","right100.0","Threshold: 0.675",1,"probability","left","yaw",94,1,0.525000011920929,0.525000011920929,4.8614448514648,"right",1022,1,"HIT"
"/home/kwm/julia/Experimente/2021-Imagery/LogFiles/Imagery","7005","w","23","right100.0","Threshold: 0.675",1,"probability","left","yaw",95,1,0.67499995,0.67499995,4.6745870449343,"right",1311,1,"HIT"
"/home/kwm/julia/Experimente/2021-Imagery/LogFiles/Imagery","7005","w","23","right100.0","Threshold: 0.675",1,"probability","left","yaw",96,1,0.575000011920929,0.575000011920929,5.20064434161209,"right",1182,1,"HIT"
"/home/kwm/julia/Experimente/2021-Imagery/LogFiles/Imagery","7005","w","23","right100.0","Threshold: 0.675",1,"probability","left","yaw",97,1,0.625000011920929,0.625000011920929,5.05281207414979,"right",1177,1,"HIT"
"/home/kwm/julia/Experimente/2021-Imagery/LogFiles/Imagery","7005","w","23","right100.0","Threshold: 0.675",1,"probability","left","yaw",98,1,0.525000011920929,0.525000011920929,4.90715755380573,"right",1379,1,"HIT"
"/home/kwm/julia/Experimente/2021-Imagery/LogFiles/Imagery","7005","w","23","right100.0","Threshold: 0.675",1,"probability","left","yaw",99,1,0.575000011920929,0.575000011920929,5.03580521228524,"right",1125,1,"HIT"
"/home/kwm/julia/Experimente/2021-Imagery/LogFiles/Imagery","7005","w","23","right100.0","Threshold: 0.675",1,"probability","left","yaw",100,1,-0.525000011920929,0.525000011920929,5.56088470569665,"left",3715,1,"CR"
"/home/kwm/julia/Experimente/2021-Imagery/LogFiles/Imagery","7005","w","23","right100.0","Threshold: 0.675",1,"imagery","right","yaw",1,1,-0.625000011920929,0.625000011920929,4.53618520302185,"left",1730,1,"CR"
"/home/kwm/julia/Experimente/2021-Imagery/LogFiles/Imagery","7005","w","23","right100.0","Threshold: 0.675",1,"imagery","right","yaw",2,1,-0.725000011920929,0.725000011920929,5.3646172731071,"left",2595,1,"CR"
"/home/kwm/julia/Experimente/2021-Imagery/LogFiles/Imagery","7005","w","23","right100.0","Threshold: 0.675",1,"imagery","right","yaw",3,1,-0.67499995,0.67499995,5.37307360564212,"left",2277,1,"CR"
"/home/kwm/julia/Experimente/2021-Imagery/LogFiles/Imagery","7005","w","23","right100.0","Threshold: 0.675",1,"imagery","right","yaw",4,1,0.67499995,0.67499995,5.06952486221783,"right",1464,1,"HIT"
"/home/kwm/julia/Experimente/2021-Imagery/LogFiles/Imagery","7005","w","23","right100.0","Threshold: 0.675",1,"imagery","right","yaw",5,1,0.525000011920929,0.525000011920929,5.0602197978425,"right",1521,1,"HIT"
"/home/kwm/julia/Experimente/2021-Imagery/LogFiles/Imagery","7005","w","23","right100.0","Threshold: 0.675",1,"imagery","right","yaw",6,1,0.575000011920929,0.575000011920929,4.9972494931928,"right",1621,1,"HIT"
"/home/kwm/julia/Experimente/2021-Imagery/LogFiles/Imagery","7005","w","23","right100.0","Threshold: 0.675",1,"imagery","right","yaw",7,1,-0.525000011920929,0.525000011920929,4.77100010947853,"left",1374,1,"CR"
"/home/kwm/julia/Experimente/2021-Imagery/LogFiles/Imagery","7005","w","23","right100.0","Threshold: 0.675",1,"imagery","right","yaw",8,1,0.625000011920929,0.625000011920929,5.00303829983557,"right",1723,1,"HIT"
"/home/kwm/julia/Experimente/2021-Imagery/LogFiles/Imagery","7005","w","23","right100.0","Threshold: 0.675",1,"imagery","right","yaw",9,1,0.625000011920929,0.625000011920929,5.3008198685869,"right",1187,1,"HIT"
"/home/kwm/julia/Experimente/2021-Imagery/LogFiles/Imagery","7005","w","23","right100.0","Threshold: 0.675",1,"imagery","right","yaw",10,1,0.575000011920929,0.575000011920929,5.44768318190334,"right",2580,1,"HIT"
"/home/kwm/julia/Experimente/2021-Imagery/LogFiles/Imagery","7005","w","23","right100.0","Threshold: 0.675",1,"imagery","right","yaw",11,1,-0.725000011920929,0.725000011920929,4.48321975379815,"left",1313,1,"CR"
"/home/kwm/julia/Experimente/2021-Imagery/LogFiles/Imagery","7005","w","23","right100.0","Threshold: 0.675",1,"imagery","right","yaw",12,1,-0.575000011920929,0.575000011920929,5.56267641755598,"left",1363,1,"CR"
"/home/kwm/julia/Experimente/2021-Imagery/LogFiles/Imagery","7005","w","23","right100.0","Threshold: 0.675",1,"imagery","right","yaw",13,1,-0.67499995,0.67499995,5.36744840267326,"left",1018,1,"CR"
"/home/kwm/julia/Experimente/2021-Imagery/LogFiles/Imagery","7005","w","23","right100.0","Threshold: 0.675",1,"imagery","right","yaw",14,1,-0.625000011920929,0.625000011920929,4.61516124533094,"left",2540,1,"CR"
"/home/kwm/julia/Experimente/2021-Imagery/LogFiles/Imagery","7005","w","23","right100.0","Threshold: 0.675",1,"imagery","right","yaw",15,1,-0.575000011920929,0.575000011920929,4.73355719240273,"left",1263,1,"CR"
"/home/kwm/julia/Experimente/2021-Imagery/LogFiles/Imagery","7005","w","23","right100.0","Threshold: 0.675",1,"imagery","right","yaw",16,1,0.725000011920929,0.725000011920929,5.15685366786171,"right",1261,1,"HIT"
"/home/kwm/julia/Experimente/2021-Imagery/LogFiles/Imagery","7005","w","23","right100.0","Threshold: 0.675",1,"imagery","right","yaw",17,1,0.625000011920929,0.625000011920929,5.04800572168502,"right",978,1,"HIT"
"/home/kwm/julia/Experimente/2021-Imagery/LogFiles/Imagery","7005","w","23","right100.0","Threshold: 0.675",1,"imagery","right","yaw",18,1,0.67499995,0.67499995,5.28580758333973,"right",1017,1,"HIT"
"/home/kwm/julia/Experimente/2021-Imagery/LogFiles/Imagery","7005","w","23","right100.0","Threshold: 0.675",1,"imagery","right","yaw",19,1,-0.725000011920929,0.725000011920929,4.8373044094559,"left",1316,1,"CR"
"/home/kwm/julia/Experimente/2021-Imagery/LogFiles/Imagery","7005","w","23","right100.0","Threshold: 0.675",1,"imagery","right","yaw",20,1,0.625000011920929,0.625000011920929,5.21515902647422,"right",958,1,"HIT"
"/home/kwm/julia/Experimente/2021-Imagery/LogFiles/Imagery","7005","w","23","right100.0","Threshold: 0.675",1,"imagery","right","yaw",21,1,0.67499995,0.67499995,5.09378568668827,"right",1236,1,"HIT"
"/home/kwm/julia/Experimente/2021-Imagery/LogFiles/Imagery","7005","w","23","right100.0","Threshold: 0.675",1,"imagery","right","yaw",22,1,-0.525000011920929,0.525000011920929,4.55772852433406,"left",1759,1,"CR"
"/home/kwm/julia/Experimente/2021-Imagery/LogFiles/Imagery","7005","w","23","right100.0","Threshold: 0.675",1,"imagery","right","yaw",23,1,-0.67499995,0.67499995,4.95151709158738,"left",961,1,"CR"
"/home/kwm/julia/Experimente/2021-Imagery/LogFiles/Imagery","7005","w","23","right100.0","Threshold: 0.675",1,"imagery","right","yaw",24,1,-0.725000011920929,0.725000011920929,4.83039041269259,"left",1753,1,"CR"
"/home/kwm/julia/Experimente/2021-Imagery/LogFiles/Imagery","7005","w","23","right100.0","Threshold: 0.675",1,"imagery","right","yaw",25,1,0.725000011920929,0.725000011920929,4.6137842929209,"right",927,1,"HIT"
"/home/kwm/julia/Experimente/2021-Imagery/LogFiles/Imagery","7005","w","23","right100.0","Threshold: 0.675",1,"imagery","right","yaw",26,1,0.525000011920929,0.525000011920929,5.04788357074961,"right",982,1,"HIT"
"/home/kwm/julia/Experimente/2021-Imagery/LogFiles/Imagery","7005","w","23","right100.0","Threshold: 0.675",1,"imagery","right","yaw",27,1,-0.625000011920929,0.625000011920929,5.28229351800921,"left",1617,1,"CR"
"/home/kwm/julia/Experimente/2021-Imagery/LogFiles/Imagery","7005","w","23","right100.0","Threshold: 0.675",1,"imagery","right","yaw",28,1,0.575000011920929,0.575000011920929,4.59398075478054,"right",848,1,"HIT"
"/home/kwm/julia/Experimente/2021-Imagery/LogFiles/Imagery","7005","w","23","right100.0","Threshold: 0.675",1,"imagery","right","yaw",29,1,-0.575000011920929,0.575000011920929,5.49450930200883,"left",2334,1,"CR"
"/home/kwm/julia/Experimente/2021-Imagery/LogFiles/Imagery","7005","w","23","right100.0","Threshold: 0.675",1,"imagery","right","yaw",30,1,0.525000011920929,0.525000011920929,4.35984046291924,"right",1034,1,"HIT"
"/home/kwm/julia/Experimente/2021-Imagery/LogFiles/Imagery","7005","w","23","right100.0","Threshold: 0.675",1,"imagery","right","yaw",31,1,0.575000011920929,0.575000011920929,5.45256807337218,"right",802,1,"HIT"
"/home/kwm/julia/Experimente/2021-Imagery/LogFiles/Imagery","7005","w","23","right100.0","Threshold: 0.675",1,"imagery","right","yaw",32,1,0.525000011920929,0.525000011920929,5.02016080218089,"right",820,1,"HIT"
"/home/kwm/julia/Experimente/2021-Imagery/LogFiles/Imagery","7005","w","23","right100.0","Threshold: 0.675",1,"imagery","right","yaw",33,1,0.575000011920929,0.575000011920929,4.87325814320821,"right",1280,1,"HIT"
"/home/kwm/julia/Experimente/2021-Imagery/LogFiles/Imagery","7005","w","23","right100.0","Threshold: 0.675",1,"imagery","right","yaw",34,1,0.67499995,0.67499995,4.82430513815717,"right",1003,1,"HIT"
"/home/kwm/julia/Experimente/2021-Imagery/LogFiles/Imagery","7005","w","23","right100.0","Threshold: 0.675",1,"imagery","right","yaw",35,1,0.575000011920929,0.575000011920929,4.91014638383379,"right",855,1,"HIT"
"/home/kwm/julia/Experimente/2021-Imagery/LogFiles/Imagery","7005","w","23","right100.0","Threshold: 0.675",1,"imagery","right","yaw",36,1,-0.67499995,0.67499995,5.14366689963051,"left",1069,1,"CR"
"/home/kwm/julia/Experimente/2021-Imagery/LogFiles/Imagery","7005","w","23","right100.0","Threshold: 0.675",1,"imagery","right","yaw",37,1,0.725000011920929,0.725000011920929,5.94025170958747,"right",829,1,"HIT"
"/home/kwm/julia/Experimente/2021-Imagery/LogFiles/Imagery","7005","w","23","right100.0","Threshold: 0.675",1,"imagery","right","yaw",38,1,-0.625000011920929,0.625000011920929,5.64761923267556,"left",1172,1,"CR"
"/home/kwm/julia/Experimente/2021-Imagery/LogFiles/Imagery","7005","w","23","right100.0","Threshold: 0.675",1,"imagery","right","yaw",39,1,-0.575000011920929,0.575000011920929,5.1583050227965,"right",1736,0,"FA"
"/home/kwm/julia/Experimente/2021-Imagery/LogFiles/Imagery","7005","w","23","right100.0","Threshold: 0.675",1,"imagery","right","yaw",40,1,-0.725000011920929,0.725000011920929,4.98919988739042,"left",1467,1,"CR"
"/home/kwm/julia/Experimente/2021-Imagery/LogFiles/Imagery","7005","w","23","right100.0","Threshold: 0.675",1,"imagery","right","yaw",41,1,-0.725000011920929,0.725000011920929,5.22973079751464,"left",1302,1,"CR"
"/home/kwm/julia/Experimente/2021-Imagery/LogFiles/Imagery","7005","w","23","right100.0","Threshold: 0.675",1,"imagery","right","yaw",42,1,0.525000011920929,0.525000011920929,4.72324306994702,"right",1116,1,"HIT"
"/home/kwm/julia/Experimente/2021-Imagery/LogFiles/Imagery","7005","w","23","right100.0","Threshold: 0.675",1,"imagery","right","yaw",43,1,-0.725000011920929,0.725000011920929,5.0698399405061,"left",1462,1,"CR"
"/home/kwm/julia/Experimente/2021-Imagery/LogFiles/Imagery","7005","w","23","right100.0","Threshold: 0.675",1,"imagery","right","yaw",44,1,0.67499995,0.67499995,5.23339907578085,"right",789,1,"HIT"
"/home/kwm/julia/Experimente/2021-Imagery/LogFiles/Imagery","7005","w","23","right100.0","Threshold: 0.675",1,"imagery","right","yaw",45,1,0.525000011920929,0.525000011920929,4.88597032831763,"right",725,1,"HIT"
"/home/kwm/julia/Experimente/2021-Imagery/LogFiles/Imagery","7005","w","23","right100.0","Threshold: 0.675",1,"imagery","right","yaw",46,1,0.725000011920929,0.725000011920929,4.75011835106659,"left",3829,0,"MISS"
"/home/kwm/julia/Experimente/2021-Imagery/LogFiles/Imagery","7005","w","23","right100.0","Threshold: 0.675",1,"imagery","right","yaw",47,1,0.67499995,0.67499995,4.86855566428231,"right",872,1,"HIT"
"/home/kwm/julia/Experimente/2021-Imagery/LogFiles/Imagery","7005","w","23","right100.0","Threshold: 0.675",1,"imagery","right","yaw",48,1,0.525000011920929,0.525000011920929,4.91993869693811,"right",1118,1,"HIT"
"/home/kwm/julia/Experimente/2021-Imagery/LogFiles/Imagery","7005","w","23","right100.0","Threshold: 0.675",1,"imagery","right","yaw",49,1,-0.625000011920929,0.625000011920929,4.96221602236888,"left",1809,1,"CR"
"/home/kwm/julia/Experimente/2021-Imagery/LogFiles/Imagery","7005","w","23","right100.0","Threshold: 0.675",1,"imagery","right","yaw",50,1,0.525000011920929,0.525000011920929,4.96523695570656,"right",781,1,"HIT"
"/home/kwm/julia/Experimente/2021-Imagery/LogFiles/Imagery","7005","w","23","right100.0","Threshold: 0.675",1,"imagery","right","yaw",51,1,0.575000011920929,0.575000011920929,4.6616695431588,"right",1917,1,"HIT"
"/home/kwm/julia/Experimente/2021-Imagery/LogFiles/Imagery","7005","w","23","right100.0","Threshold: 0.675",1,"imagery","right","yaw",52,1,-0.625000011920929,0.625000011920929,4.65977862407088,"left",737,1,"CR"
"/home/kwm/julia/Experimente/2021-Imagery/LogFiles/Imagery","7005","w","23","right100.0","Threshold: 0.675",1,"imagery","right","yaw",53,1,-0.67499995,0.67499995,5.61573714810444,"left",1214,1,"CR"
"/home/kwm/julia/Experimente/2021-Imagery/LogFiles/Imagery","7005","w","23","right100.0","Threshold: 0.675",1,"imagery","right","yaw",54,1,-0.575000011920929,0.575000011920929,5.24824762010478,"left",996,1,"CR"
"/home/kwm/julia/Experimente/2021-Imagery/LogFiles/Imagery","7005","w","23","right100.0","Threshold: 0.675",1,"imagery","right","yaw",55,1,0.625000011920929,0.625000011920929,5.08420851309837,"right",1134,1,"HIT"
"/home/kwm/julia/Experimente/2021-Imagery/LogFiles/Imagery","7005","w","23","right100.0","Threshold: 0.675",1,"imagery","right","yaw",56,1,-0.67499995,0.67499995,4.83832382097758,"left",1104,1,"CR"
"/home/kwm/julia/Experimente/2021-Imagery/LogFiles/Imagery","7005","w","23","right100.0","Threshold: 0.675",1,"imagery","right","yaw",57,1,-0.725000011920929,0.725000011920929,5.21104891181014,"left",906,1,"CR"
"/home/kwm/julia/Experimente/2021-Imagery/LogFiles/Imagery","7005","w","23","right100.0","Threshold: 0.675",1,"imagery","right","yaw",58,1,0.67499995,0.67499995,4.58423729433947,"right",784,1,"HIT"
"/home/kwm/julia/Experimente/2021-Imagery/LogFiles/Imagery","7005","w","23","right100.0","Threshold: 0.675",1,"imagery","right","yaw",59,1,0.67499995,0.67499995,4.57081861907835,"right",1168,1,"HIT"
"/home/kwm/julia/Experimente/2021-Imagery/LogFiles/Imagery","7005","w","23","right100.0","Threshold: 0.675",1,"imagery","right","yaw",60,1,-0.67499995,0.67499995,5.02982913326434,"left",804,1,"CR"
"/home/kwm/julia/Experimente/2021-Imagery/LogFiles/Imagery","7005","w","23","right100.0","Threshold: 0.675",1,"imagery","right","yaw",61,1,0.625000011920929,0.625000011920929,5.13856979977061,"right",1024,1,"HIT"
"/home/kwm/julia/Experimente/2021-Imagery/LogFiles/Imagery","7005","w","23","right100.0","Threshold: 0.675",1,"imagery","right","yaw",62,1,-0.525000011920929,0.525000011920929,4.79934872689167,"left",1251,1,"CR"
"/home/kwm/julia/Experimente/2021-Imagery/LogFiles/Imagery","7005","w","23","right100.0","Threshold: 0.675",1,"imagery","right","yaw",63,1,-0.525000011920929,0.525000011920929,5.19288206658937,"left",1021,1,"CR"
"/home/kwm/julia/Experimente/2021-Imagery/LogFiles/Imagery","7005","w","23","right100.0","Threshold: 0.675",1,"imagery","right","yaw",64,1,-0.525000011920929,0.525000011920929,4.98115912524815,"left",1209,1,"CR"
"/home/kwm/julia/Experimente/2021-Imagery/LogFiles/Imagery","7005","w","23","right100.0","Threshold: 0.675",1,"imagery","right","yaw",65,1,-0.525000011920929,0.525000011920929,5.25820898751451,"left",1293,1,"CR"
"/home/kwm/julia/Experimente/2021-Imagery/LogFiles/Imagery","7005","w","23","right100.0","Threshold: 0.675",1,"imagery","right","yaw",66,1,-0.625000011920929,0.625000011920929,4.96549743559472,"left",905,1,"CR"
"/home/kwm/julia/Experimente/2021-Imagery/LogFiles/Imagery","7005","w","23","right100.0","Threshold: 0.675",1,"imagery","right","yaw",67,1,-0.625000011920929,0.625000011920929,5.0723041121366,"left",1648,1,"CR"
"/home/kwm/julia/Experimente/2021-Imagery/LogFiles/Imagery","7005","w","23","right100.0","Threshold: 0.675",1,"imagery","right","yaw",68,1,-0.625000011920929,0.625000011920929,5.11863469412024,"left",1054,1,"CR"
"/home/kwm/julia/Experimente/2021-Imagery/LogFiles/Imagery","7005","w","23","right100.0","Threshold: 0.675",1,"imagery","right","yaw",69,1,0.625000011920929,0.625000011920929,4.58347226092531,"right",4128,1,"HIT"
"/home/kwm/julia/Experimente/2021-Imagery/LogFiles/Imagery","7005","w","23","right100.0","Threshold: 0.675",1,"imagery","right","yaw",70,1,-0.575000011920929,0.575000011920929,5.39846020576028,"left",2346,1,"CR"
"/home/kwm/julia/Experimente/2021-Imagery/LogFiles/Imagery","7005","w","23","right100.0","Threshold: 0.675",1,"imagery","right","yaw",71,1,0.625000011920929,0.625000011920929,5.36129638619456,"right",1288,1,"HIT"
"/home/kwm/julia/Experimente/2021-Imagery/LogFiles/Imagery","7005","w","23","right100.0","Threshold: 0.675",1,"imagery","right","yaw",72,1,0.725000011920929,0.725000011920929,5.52403482416821,"right",2501,1,"HIT"
"/home/kwm/julia/Experimente/2021-Imagery/LogFiles/Imagery","7005","w","23","right100.0","Threshold: 0.675",1,"imagery","right","yaw",73,1,-0.575000011920929,0.575000011920929,4.48826659449561,"left",1035,1,"CR"
"/home/kwm/julia/Experimente/2021-Imagery/LogFiles/Imagery","7005","w","23","right100.0","Threshold: 0.675",1,"imagery","right","yaw",74,1,0.625000011920929,0.625000011920929,4.90381835622933,"left",1962,0,"MISS"
"/home/kwm/julia/Experimente/2021-Imagery/LogFiles/Imagery","7005","w","23","right100.0","Threshold: 0.675",1,"imagery","right","yaw",75,1,-0.525000011920929,0.525000011920929,5.12442324831826,"left",1282,1,"CR"
"/home/kwm/julia/Experimente/2021-Imagery/LogFiles/Imagery","7005","w","23","right100.0","Threshold: 0.675",1,"imagery","right","yaw",76,1,0.725000011920929,0.725000011920929,5.28146967274377,"right",1956,1,"HIT"
"/home/kwm/julia/Experimente/2021-Imagery/LogFiles/Imagery","7005","w","23","right100.0","Threshold: 0.675",1,"imagery","right","yaw",77,1,0.725000011920929,0.725000011920929,4.6401221784816,"right",1097,1,"HIT"
"/home/kwm/julia/Experimente/2021-Imagery/LogFiles/Imagery","7005","w","23","right100.0","Threshold: 0.675",1,"imagery","right","yaw",78,1,0.725000011920929,0.725000011920929,5.13552465361909,"right",882,1,"HIT"
"/home/kwm/julia/Experimente/2021-Imagery/LogFiles/Imagery","7005","w","23","right100.0","Threshold: 0.675",1,"imagery","right","yaw",79,1,0.625000011920929,0.625000011920929,5.00383705739191,"right",836,1,"HIT"
"/home/kwm/julia/Experimente/2021-Imagery/LogFiles/Imagery","7005","w","23","right100.0","Threshold: 0.675",1,"imagery","right","yaw",80,1,0.67499995,0.67499995,5.04836955619998,"right",955,1,"HIT"
"/home/kwm/julia/Experimente/2021-Imagery/LogFiles/Imagery","7005","w","23","right100.0","Threshold: 0.675",1,"imagery","right","yaw",81,1,-0.725000011920929,0.725000011920929,4.85051534754202,"right",4174,0,"FA"
"/home/kwm/julia/Experimente/2021-Imagery/LogFiles/Imagery","7005","w","23","right100.0","Threshold: 0.675",1,"imagery","right","yaw",82,1,-0.725000011920929,0.725000011920929,4.75471088060685,"right",5019,0,"FA"
"/home/kwm/julia/Experimente/2021-Imagery/LogFiles/Imagery","7005","w","23","right100.0","Threshold: 0.675",1,"imagery","right","yaw",83,1,-0.625000011920929,0.625000011920929,5.05455538780468,"left",1757,1,"CR"
"/home/kwm/julia/Experimente/2021-Imagery/LogFiles/Imagery","7005","w","23","right100.0","Threshold: 0.675",1,"imagery","right","yaw",84,1,-0.575000011920929,0.575000011920929,5.22586998416853,"left",895,1,"CR"
"/home/kwm/julia/Experimente/2021-Imagery/LogFiles/Imagery","7005","w","23","right100.0","Threshold: 0.675",1,"imagery","right","yaw",85,1,-0.525000011920929,0.525000011920929,4.5383028482698,"left",1500,1,"CR"
"/home/kwm/julia/Experimente/2021-Imagery/LogFiles/Imagery","7005","w","23","right100.0","Threshold: 0.675",1,"imagery","right","yaw",86,1,0.525000011920929,0.525000011920929,4.85328151885392,"right",1450,1,"HIT"
"/home/kwm/julia/Experimente/2021-Imagery/LogFiles/Imagery","7005","w","23","right100.0","Threshold: 0.675",1,"imagery","right","yaw",87,1,-0.575000011920929,0.575000011920929,5.21427741789655,"left",1230,1,"CR"
"/home/kwm/julia/Experimente/2021-Imagery/LogFiles/Imagery","7005","w","23","right100.0","Threshold: 0.675",1,"imagery","right","yaw",88,1,-0.67499995,0.67499995,4.74574908391813,"left",1475,1,"CR"
"/home/kwm/julia/Experimente/2021-Imagery/LogFiles/Imagery","7005","w","23","right100.0","Threshold: 0.675",1,"imagery","right","yaw",89,1,-0.525000011920929,0.525000011920929,5.12013714150513,"left",1388,1,"CR"
"/home/kwm/julia/Experimente/2021-Imagery/LogFiles/Imagery","7005","w","23","right100.0","Threshold: 0.675",1,"imagery","right","yaw",90,1,-0.67499995,0.67499995,4.97169924781813,"left",977,1,"CR"
"/home/kwm/julia/Experimente/2021-Imagery/LogFiles/Imagery","7005","w","23","right100.0","Threshold: 0.675",1,"imagery","right","yaw",91,1,0.575000011920929,0.575000011920929,5.50646931725746,"right",4716,1,"HIT"
"/home/kwm/julia/Experimente/2021-Imagery/LogFiles/Imagery","7005","w","23","right100.0","Threshold: 0.675",1,"imagery","right","yaw",92,1,-0.525000011920929,0.525000011920929,5.41367146027571,"left",1336,1,"CR"
"/home/kwm/julia/Experimente/2021-Imagery/LogFiles/Imagery","7005","w","23","right100.0","Threshold: 0.675",1,"imagery","right","yaw",93,1,0.575000011920929,0.575000011920929,4.97497066657993,"right",1124,1,"HIT"
"/home/kwm/julia/Experimente/2021-Imagery/LogFiles/Imagery","7005","w","23","right100.0","Threshold: 0.675",1,"imagery","right","yaw",94,1,0.575000011920929,0.575000011920929,4.63239116175317,"right",1121,1,"HIT"
"/home/kwm/julia/Experimente/2021-Imagery/LogFiles/Imagery","7005","w","23","right100.0","Threshold: 0.675",1,"imagery","right","yaw",95,1,0.67499995,0.67499995,5.17967174648917,"right",1634,1,"HIT"
"/home/kwm/julia/Experimente/2021-Imagery/LogFiles/Imagery","7005","w","23","right100.0","Threshold: 0.675",1,"imagery","right","yaw",96,1,0.725000011920929,0.725000011920929,5.00412858470571,"right",1165,1,"HIT"
"/home/kwm/julia/Experimente/2021-Imagery/LogFiles/Imagery","7005","w","23","right100.0","Threshold: 0.675",1,"imagery","right","yaw",97,1,0.725000011920929,0.725000011920929,5.39140229182722,"right",933,1,"HIT"
"/home/kwm/julia/Experimente/2021-Imagery/LogFiles/Imagery","7005","w","23","right100.0","Threshold: 0.675",1,"imagery","right","yaw",98,1,0.525000011920929,0.525000011920929,5.17024302492331,"right",1193,1,"HIT"
"/home/kwm/julia/Experimente/2021-Imagery/LogFiles/Imagery","7005","w","23","right100.0","Threshold: 0.675",1,"imagery","right","yaw",99,1,-0.575000011920929,0.575000011920929,4.44945418253254,"left",1397,1,"CR"
"/home/kwm/julia/Experimente/2021-Imagery/LogFiles/Imagery","7005","w","23","right100.0","Threshold: 0.675",1,"imagery","right","yaw",100,1,-0.67499995,0.67499995,4.95689790117344,"left",930,1,"CR"
